,trial,block,s1,s2,connected,response,accuracy,rt,counter,id,condition
0,0,0,./static/experiments/de2/materials/stim_files/16.png,./static/experiments/de2/materials/stim_files/5.png,2,no,,3505,1,42,1
1,1,0,./static/experiments/de2/materials/stim_files/14.png,./static/experiments/de2/materials/stim_files/8.png,2,no,,4919,1,42,1
2,2,0,./static/experiments/de2/materials/stim_files/14.png,./static/experiments/de2/materials/stim_files/1.png,2,no,,1808,1,42,1
3,3,0,./static/experiments/de2/materials/stim_files/2.png,./static/experiments/de2/materials/stim_files/15.png,2,no,,885,1,42,1
4,4,0,./static/experiments/de2/materials/stim_files/2.png,./static/experiments/de2/materials/stim_files/3.png,2,yes,,1178,1,42,1
5,5,0,./static/experiments/de2/materials/stim_files/1.png,./static/experiments/de2/materials/stim_files/16.png,2,no,,1201,1,42,1
6,6,0,./static/experiments/de2/materials/stim_files/16.png,./static/experiments/de2/materials/stim_files/9.png,2,no,,3052,1,42,1
7,7,0,./static/experiments/de2/materials/stim_files/2.png,./static/experiments/de2/materials/stim_files/16.png,2,no,,862,1,42,1
8,8,0,./static/experiments/de2/materials/stim_files/3.png,./static/experiments/de2/materials/stim_files/11.png,2,no,,2254,1,42,1
9,9,0,./static/experiments/de2/materials/stim_files/10.png,./static/experiments/de2/materials/stim_files/12.png,2,yes,,957,1,42,1
10,10,0,./static/experiments/de2/materials/stim_files/6.png,./static/experiments/de2/materials/stim_files/6.png,2,yes,,1008,1,42,1
11,11,0,./static/experiments/de2/materials/stim_files/8.png,./static/experiments/de2/materials/stim_files/13.png,2,no,,1314,1,42,1
12,12,0,./static/experiments/de2/materials/stim_files/15.png,./static/experiments/de2/materials/stim_files/4.png,2,no,,1542,1,42,1
13,13,0,./static/experiments/de2/materials/stim_files/7.png,./static/experiments/de2/materials/stim_files/16.png,2,no,,887,1,42,1
14,14,0,./static/experiments/de2/materials/stim_files/15.png,./static/experiments/de2/materials/stim_files/1.png,2,no,,1258,1,42,1
15,15,0,./static/experiments/de2/materials/stim_files/6.png,./static/experiments/de2/materials/stim_files/16.png,2,no,,949,1,42,1
16,16,0,./static/experiments/de2/materials/stim_files/16.png,./static/experiments/de2/materials/stim_files/8.png,2,no,,920,1,42,1
17,17,0,./static/experiments/de2/materials/stim_files/10.png,./static/experiments/de2/materials/stim_files/3.png,2,no,,1056,1,42,1
18,18,0,./static/experiments/de2/materials/stim_files/6.png,./static/experiments/de2/materials/stim_files/7.png,2,yes,,1027,1,42,1
19,19,0,./static/experiments/de2/materials/stim_files/12.png,./static/experiments/de2/materials/stim_files/9.png,2,no,,1711,1,42,1
20,20,0,./static/experiments/de2/materials/stim_files/13.png,./static/experiments/de2/materials/stim_files/4.png,2,no,,1096,1,42,1
21,21,0,./static/experiments/de2/materials/stim_files/2.png,./static/experiments/de2/materials/stim_files/14.png,2,no,,1064,1,42,1
22,22,0,./static/experiments/de2/materials/stim_files/9.png,./static/experiments/de2/materials/stim_files/4.png,2,no,,1589,1,42,1
23,23,0,./static/experiments/de2/materials/stim_files/1.png,./static/experiments/de2/materials/stim_files/4.png,2,yes,,2442,1,42,1
24,24,0,./static/experiments/de2/materials/stim_files/12.png,./static/experiments/de2/materials/stim_files/8.png,2,no,,1252,1,42,1
25,25,0,./static/experiments/de2/materials/stim_files/13.png,./static/experiments/de2/materials/stim_files/1.png,2,no,,1551,1,42,1
26,26,0,./static/experiments/de2/materials/stim_files/12.png,./static/experiments/de2/materials/stim_files/8.png,2,no,,951,1,42,1
27,27,0,./static/experiments/de2/materials/stim_files/6.png,./static/experiments/de2/materials/stim_files/16.png,2,no,,867,1,42,1
28,28,0,./static/experiments/de2/materials/stim_files/14.png,./static/experiments/de2/materials/stim_files/8.png,2,no,,890,1,42,1
29,29,0,./static/experiments/de2/materials/stim_files/13.png,./static/experiments/de2/materials/stim_files/13.png,2,yes,,986,1,42,1
30,30,0,./static/experiments/de2/materials/stim_files/8.png,./static/experiments/de2/materials/stim_files/10.png,2,yes,,1137,1,42,1
31,31,0,./static/experiments/de2/materials/stim_files/1.png,./static/experiments/de2/materials/stim_files/16.png,2,no,,870,1,42,1
32,0,0,./static/experiments/de2/materials/stim_files/14.png,./static/experiments/de2/materials/stim_files/4.png,2,yes,,8201,1,131,2
33,1,0,./static/experiments/de2/materials/stim_files/14.png,./static/experiments/de2/materials/stim_files/7.png,2,yes,,3279,1,131,2
34,2,0,./static/experiments/de2/materials/stim_files/1.png,./static/experiments/de2/materials/stim_files/14.png,2,yes,,2025,1,131,2
35,3,0,./static/experiments/de2/materials/stim_files/3.png,./static/experiments/de2/materials/stim_files/6.png,2,yes,,1612,1,131,2
36,4,0,./static/experiments/de2/materials/stim_files/6.png,./static/experiments/de2/materials/stim_files/1.png,2,yes,,1819,1,131,2
37,5,0,./static/experiments/de2/materials/stim_files/2.png,./static/experiments/de2/materials/stim_files/16.png,2,no,,3471,1,131,2
38,6,0,./static/experiments/de2/materials/stim_files/12.png,./static/experiments/de2/materials/stim_files/7.png,2,yes,,1420,1,131,2
39,7,0,./static/experiments/de2/materials/stim_files/14.png,./static/experiments/de2/materials/stim_files/1.png,2,yes,,900,1,131,2
40,8,0,./static/experiments/de2/materials/stim_files/7.png,./static/experiments/de2/materials/stim_files/11.png,2,yes,,642,1,131,2
41,9,0,./static/experiments/de2/materials/stim_files/2.png,./static/experiments/de2/materials/stim_files/11.png,2,yes,,683,1,131,2
42,10,0,./static/experiments/de2/materials/stim_files/1.png,./static/experiments/de2/materials/stim_files/5.png,2,yes,,1646,1,131,2
43,11,0,./static/experiments/de2/materials/stim_files/1.png,./static/experiments/de2/materials/stim_files/7.png,2,yes,,1976,1,131,2
44,12,0,./static/experiments/de2/materials/stim_files/1.png,./static/experiments/de2/materials/stim_files/8.png,2,yes,,1433,1,131,2
45,13,0,./static/experiments/de2/materials/stim_files/2.png,./static/experiments/de2/materials/stim_files/5.png,2,yes,,2236,1,131,2
46,14,0,./static/experiments/de2/materials/stim_files/3.png,./static/experiments/de2/materials/stim_files/15.png,2,yes,,4143,1,131,2
47,15,0,./static/experiments/de2/materials/stim_files/12.png,./static/experiments/de2/materials/stim_files/3.png,2,yes,,1870,1,131,2
48,16,0,./static/experiments/de2/materials/stim_files/5.png,./static/experiments/de2/materials/stim_files/16.png,2,no,,1791,1,131,2
49,17,0,./static/experiments/de2/materials/stim_files/4.png,./static/experiments/de2/materials/stim_files/15.png,2,no,,2119,1,131,2
50,18,0,./static/experiments/de2/materials/stim_files/10.png,./static/experiments/de2/materials/stim_files/10.png,2,yes,,3105,1,131,2
51,19,0,./static/experiments/de2/materials/stim_files/16.png,./static/experiments/de2/materials/stim_files/1.png,2,no,,2122,1,131,2
52,20,0,./static/experiments/de2/materials/stim_files/2.png,./static/experiments/de2/materials/stim_files/14.png,2,no,,2662,1,131,2
53,21,0,./static/experiments/de2/materials/stim_files/2.png,./static/experiments/de2/materials/stim_files/16.png,2,no,,963,1,131,2
54,22,0,./static/experiments/de2/materials/stim_files/13.png,./static/experiments/de2/materials/stim_files/3.png,2,no,,4002,1,131,2
55,23,0,./static/experiments/de2/materials/stim_files/9.png,./static/experiments/de2/materials/stim_files/8.png,2,yes,,1426,1,131,2
56,24,0,./static/experiments/de2/materials/stim_files/11.png,./static/experiments/de2/materials/stim_files/13.png,2,yes,,1691,1,131,2
57,25,0,./static/experiments/de2/materials/stim_files/14.png,./static/experiments/de2/materials/stim_files/6.png,2,yes,,946,1,131,2
58,26,0,./static/experiments/de2/materials/stim_files/1.png,./static/experiments/de2/materials/stim_files/16.png,2,no,,1424,1,131,2
59,27,0,./static/experiments/de2/materials/stim_files/7.png,./static/experiments/de2/materials/stim_files/9.png,2,yes,,1019,1,131,2
60,28,0,./static/experiments/de2/materials/stim_files/4.png,./static/experiments/de2/materials/stim_files/12.png,2,yes,,856,1,131,2
61,29,0,./static/experiments/de2/materials/stim_files/7.png,./static/experiments/de2/materials/stim_files/7.png,2,yes,,1289,1,131,2
62,30,0,./static/experiments/de2/materials/stim_files/14.png,./static/experiments/de2/materials/stim_files/13.png,2,yes,,2146,1,131,2
63,31,0,./static/experiments/de2/materials/stim_files/7.png,./static/experiments/de2/materials/stim_files/13.png,2,yes,,856,1,131,2
64,0,0,./static/experiments/de2/materials/stim_files/2.png,./static/experiments/de2/materials/stim_files/4.png,2,no,,3342,1,219,2
65,1,0,./static/experiments/de2/materials/stim_files/10.png,./static/experiments/de2/materials/stim_files/11.png,2,no,,3297,1,219,2
66,2,0,./static/experiments/de2/materials/stim_files/1.png,./static/experiments/de2/materials/stim_files/14.png,2,yes,,2499,1,219,2
67,3,0,./static/experiments/de2/materials/stim_files/4.png,./static/experiments/de2/materials/stim_files/12.png,2,yes,,1675,1,219,2
68,4,0,./static/experiments/de2/materials/stim_files/14.png,./static/experiments/de2/materials/stim_files/8.png,2,yes,,2089,1,219,2
69,5,0,./static/experiments/de2/materials/stim_files/1.png,./static/experiments/de2/materials/stim_files/16.png,2,no,,2778,1,219,2
70,6,0,./static/experiments/de2/materials/stim_files/16.png,./static/experiments/de2/materials/stim_files/1.png,2,yes,,2683,1,219,2
71,7,0,./static/experiments/de2/materials/stim_files/13.png,./static/experiments/de2/materials/stim_files/2.png,2,yes,,1584,1,219,2
72,8,0,./static/experiments/de2/materials/stim_files/9.png,./static/experiments/de2/materials/stim_files/2.png,2,yes,,2035,1,219,2
73,9,0,./static/experiments/de2/materials/stim_files/6.png,./static/experiments/de2/materials/stim_files/10.png,2,no,,2729,1,219,2
74,10,0,./static/experiments/de2/materials/stim_files/12.png,./static/experiments/de2/materials/stim_files/1.png,2,yes,,1285,1,219,2
75,11,0,./static/experiments/de2/materials/stim_files/7.png,./static/experiments/de2/materials/stim_files/15.png,2,yes,,1287,1,219,2
76,12,0,./static/experiments/de2/materials/stim_files/4.png,./static/experiments/de2/materials/stim_files/4.png,2,no,,1587,1,219,2
77,13,0,./static/experiments/de2/materials/stim_files/11.png,./static/experiments/de2/materials/stim_files/16.png,2,no,,2496,1,219,2
78,14,0,./static/experiments/de2/materials/stim_files/11.png,./static/experiments/de2/materials/stim_files/1.png,2,yes,,2709,1,219,2
79,15,0,./static/experiments/de2/materials/stim_files/14.png,./static/experiments/de2/materials/stim_files/1.png,2,yes,,1479,1,219,2
80,16,0,./static/experiments/de2/materials/stim_files/3.png,./static/experiments/de2/materials/stim_files/15.png,2,yes,,4613,1,219,2
81,17,0,./static/experiments/de2/materials/stim_files/1.png,./static/experiments/de2/materials/stim_files/8.png,2,yes,,1918,1,219,2
82,18,0,./static/experiments/de2/materials/stim_files/2.png,./static/experiments/de2/materials/stim_files/16.png,2,yes,,1084,1,219,2
83,19,0,./static/experiments/de2/materials/stim_files/15.png,./static/experiments/de2/materials/stim_files/10.png,2,no,,2537,1,219,2
84,20,0,./static/experiments/de2/materials/stim_files/16.png,./static/experiments/de2/materials/stim_files/13.png,2,no,,1292,1,219,2
85,21,0,./static/experiments/de2/materials/stim_files/10.png,./static/experiments/de2/materials/stim_files/6.png,2,yes,,3741,1,219,2
86,22,0,./static/experiments/de2/materials/stim_files/1.png,./static/experiments/de2/materials/stim_files/10.png,2,yes,,1053,1,219,2
87,23,0,./static/experiments/de2/materials/stim_files/14.png,./static/experiments/de2/materials/stim_files/2.png,2,yes,,1474,1,219,2
88,24,0,./static/experiments/de2/materials/stim_files/15.png,./static/experiments/de2/materials/stim_files/1.png,2,yes,,850,1,219,2
89,25,0,./static/experiments/de2/materials/stim_files/12.png,./static/experiments/de2/materials/stim_files/9.png,2,no,,1029,1,219,2
90,26,0,./static/experiments/de2/materials/stim_files/13.png,./static/experiments/de2/materials/stim_files/7.png,2,yes,,1614,1,219,2
91,27,0,./static/experiments/de2/materials/stim_files/13.png,./static/experiments/de2/materials/stim_files/13.png,2,no,,1133,1,219,2
92,28,0,./static/experiments/de2/materials/stim_files/15.png,./static/experiments/de2/materials/stim_files/5.png,2,yes,,1458,1,219,2
93,29,0,./static/experiments/de2/materials/stim_files/12.png,./static/experiments/de2/materials/stim_files/14.png,2,no,,1206,1,219,2
94,30,0,./static/experiments/de2/materials/stim_files/5.png,./static/experiments/de2/materials/stim_files/14.png,2,yes,,971,1,219,2
95,31,0,./static/experiments/de2/materials/stim_files/9.png,./static/experiments/de2/materials/stim_files/10.png,2,no,,1050,1,219,2
96,0,0,./static/experiments/de2/materials/stim_files/16.png,./static/experiments/de2/materials/stim_files/2.png,2,no,,8062,0,253,2
97,1,0,./static/experiments/de2/materials/stim_files/4.png,./static/experiments/de2/materials/stim_files/13.png,2,yes,,2461,0,253,2
98,2,0,./static/experiments/de2/materials/stim_files/16.png,./static/experiments/de2/materials/stim_files/3.png,2,yes,,4014,0,253,2
99,3,0,./static/experiments/de2/materials/stim_files/13.png,./static/experiments/de2/materials/stim_files/13.png,2,no,,2818,0,253,2
100,4,0,./static/experiments/de2/materials/stim_files/2.png,./static/experiments/de2/materials/stim_files/13.png,2,yes,,2639,0,253,2
101,5,0,./static/experiments/de2/materials/stim_files/3.png,./static/experiments/de2/materials/stim_files/15.png,2,no,,3621,0,253,2
102,6,0,./static/experiments/de2/materials/stim_files/16.png,./static/experiments/de2/materials/stim_files/1.png,2,no,,3491,0,253,2
103,7,0,./static/experiments/de2/materials/stim_files/4.png,./static/experiments/de2/materials/stim_files/14.png,2,yes,,3059,0,253,2
104,8,0,./static/experiments/de2/materials/stim_files/8.png,./static/experiments/de2/materials/stim_files/1.png,2,yes,,2171,0,253,2
105,9,0,./static/experiments/de2/materials/stim_files/6.png,./static/experiments/de2/materials/stim_files/16.png,2,yes,,2261,0,253,2
106,10,0,./static/experiments/de2/materials/stim_files/13.png,./static/experiments/de2/materials/stim_files/5.png,2,yes,,2154,0,253,2
107,11,0,./static/experiments/de2/materials/stim_files/7.png,./static/experiments/de2/materials/stim_files/12.png,2,no,,1915,0,253,2
108,12,0,./static/experiments/de2/materials/stim_files/12.png,./static/experiments/de2/materials/stim_files/13.png,2,no,,2453,0,253,2
109,13,0,./static/experiments/de2/materials/stim_files/4.png,./static/experiments/de2/materials/stim_files/2.png,2,no,,1990,0,253,2
110,14,0,./static/experiments/de2/materials/stim_files/15.png,./static/experiments/de2/materials/stim_files/2.png,2,yes,,2297,0,253,2
111,15,0,./static/experiments/de2/materials/stim_files/8.png,./static/experiments/de2/materials/stim_files/11.png,2,no,,1664,0,253,2
112,16,0,./static/experiments/de2/materials/stim_files/13.png,./static/experiments/de2/materials/stim_files/7.png,2,no,,2906,0,253,2
113,17,0,./static/experiments/de2/materials/stim_files/7.png,./static/experiments/de2/materials/stim_files/8.png,2,no,,1557,0,253,2
114,18,0,./static/experiments/de2/materials/stim_files/11.png,./static/experiments/de2/materials/stim_files/7.png,2,no,,2471,0,253,2
115,19,0,./static/experiments/de2/materials/stim_files/10.png,./static/experiments/de2/materials/stim_files/5.png,2,no,,6868,0,253,2
116,20,0,./static/experiments/de2/materials/stim_files/12.png,./static/experiments/de2/materials/stim_files/12.png,2,no,,1322,0,253,2
117,21,0,./static/experiments/de2/materials/stim_files/3.png,./static/experiments/de2/materials/stim_files/9.png,2,no,,4531,0,253,2
118,22,0,./static/experiments/de2/materials/stim_files/1.png,./static/experiments/de2/materials/stim_files/5.png,2,no,,2610,0,253,2
119,23,0,./static/experiments/de2/materials/stim_files/13.png,./static/experiments/de2/materials/stim_files/11.png,2,no,,1708,0,253,2
120,24,0,./static/experiments/de2/materials/stim_files/15.png,./static/experiments/de2/materials/stim_files/12.png,2,no,,1723,0,253,2
121,25,0,./static/experiments/de2/materials/stim_files/1.png,./static/experiments/de2/materials/stim_files/12.png,2,yes,,1978,0,253,2
122,26,0,./static/experiments/de2/materials/stim_files/16.png,./static/experiments/de2/materials/stim_files/2.png,2,no,,3876,0,253,2
123,27,0,./static/experiments/de2/materials/stim_files/1.png,./static/experiments/de2/materials/stim_files/16.png,2,no,,3374,0,253,2
124,28,0,./static/experiments/de2/materials/stim_files/10.png,./static/experiments/de2/materials/stim_files/2.png,2,yes,,1705,0,253,2
125,29,0,./static/experiments/de2/materials/stim_files/13.png,./static/experiments/de2/materials/stim_files/1.png,2,yes,,3560,0,253,2
126,30,0,./static/experiments/de2/materials/stim_files/6.png,./static/experiments/de2/materials/stim_files/15.png,2,yes,,2543,0,253,2
127,31,0,./static/experiments/de2/materials/stim_files/7.png,./static/experiments/de2/materials/stim_files/14.png,2,yes,,2458,0,253,2
128,0,0,./static/experiments/de2/materials/stim_files/7.png,./static/experiments/de2/materials/stim_files/2.png,2,yes,,5320,0,124,1
129,1,0,./static/experiments/de2/materials/stim_files/5.png,./static/experiments/de2/materials/stim_files/2.png,2,yes,,979,0,124,1
130,2,0,./static/experiments/de2/materials/stim_files/13.png,./static/experiments/de2/materials/stim_files/1.png,2,yes,,984,0,124,1
131,3,0,./static/experiments/de2/materials/stim_files/8.png,./static/experiments/de2/materials/stim_files/15.png,2,yes,,1150,0,124,1
132,4,0,./static/experiments/de2/materials/stim_files/14.png,./static/experiments/de2/materials/stim_files/1.png,2,yes,,1110,0,124,1
133,5,0,./static/experiments/de2/materials/stim_files/4.png,./static/experiments/de2/materials/stim_files/14.png,2,yes,,1102,0,124,1
134,6,0,./static/experiments/de2/materials/stim_files/7.png,./static/experiments/de2/materials/stim_files/16.png,2,yes,,1059,0,124,1
135,7,0,./static/experiments/de2/materials/stim_files/2.png,./static/experiments/de2/materials/stim_files/13.png,2,yes,,853,0,124,1
136,8,0,./static/experiments/de2/materials/stim_files/2.png,./static/experiments/de2/materials/stim_files/4.png,2,no,,2466,0,124,1
137,9,0,./static/experiments/de2/materials/stim_files/7.png,./static/experiments/de2/materials/stim_files/16.png,2,yes,,1033,0,124,1
138,10,0,./static/experiments/de2/materials/stim_files/15.png,./static/experiments/de2/materials/stim_files/2.png,2,yes,,758,0,124,1
139,11,0,./static/experiments/de2/materials/stim_files/12.png,./static/experiments/de2/materials/stim_files/10.png,2,no,,1276,0,124,1
140,12,0,./static/experiments/de2/materials/stim_files/14.png,./static/experiments/de2/materials/stim_files/15.png,2,no,,972,0,124,1
141,13,0,./static/experiments/de2/materials/stim_files/15.png,./static/experiments/de2/materials/stim_files/1.png,2,yes,,1021,0,124,1
142,14,0,./static/experiments/de2/materials/stim_files/14.png,./static/experiments/de2/materials/stim_files/2.png,2,yes,,709,0,124,1
143,15,0,./static/experiments/de2/materials/stim_files/16.png,./static/experiments/de2/materials/stim_files/16.png,2,no,,948,0,124,1
144,16,0,./static/experiments/de2/materials/stim_files/9.png,./static/experiments/de2/materials/stim_files/9.png,2,no,,1059,0,124,1
145,17,0,./static/experiments/de2/materials/stim_files/15.png,./static/experiments/de2/materials/stim_files/1.png,2,yes,,1056,0,124,1
146,18,0,./static/experiments/de2/materials/stim_files/16.png,./static/experiments/de2/materials/stim_files/1.png,2,yes,,747,0,124,1
147,19,0,./static/experiments/de2/materials/stim_files/1.png,./static/experiments/de2/materials/stim_files/16.png,2,yes,,661,0,124,1
148,20,0,./static/experiments/de2/materials/stim_files/16.png,./static/experiments/de2/materials/stim_files/8.png,2,yes,,830,0,124,1
149,21,0,./static/experiments/de2/materials/stim_files/6.png,./static/experiments/de2/materials/stim_files/2.png,2,yes,,3731,0,124,1
150,22,0,./static/experiments/de2/materials/stim_files/14.png,./static/experiments/de2/materials/stim_files/9.png,2,yes,,2807,0,124,1
151,23,0,./static/experiments/de2/materials/stim_files/13.png,./static/experiments/de2/materials/stim_files/3.png,2,yes,,795,0,124,1
152,24,0,./static/experiments/de2/materials/stim_files/3.png,./static/experiments/de2/materials/stim_files/6.png,2,yes,,8213,0,124,1
153,25,0,./static/experiments/de2/materials/stim_files/8.png,./static/experiments/de2/materials/stim_files/2.png,2,yes,,1040,0,124,1
154,26,0,./static/experiments/de2/materials/stim_files/14.png,./static/experiments/de2/materials/stim_files/7.png,2,yes,,1174,0,124,1
155,27,0,./static/experiments/de2/materials/stim_files/14.png,./static/experiments/de2/materials/stim_files/10.png,2,no,,4156,0,124,1
156,28,0,./static/experiments/de2/materials/stim_files/1.png,./static/experiments/de2/materials/stim_files/9.png,2,yes,,950,0,124,1
157,29,0,./static/experiments/de2/materials/stim_files/5.png,./static/experiments/de2/materials/stim_files/6.png,2,no,,1092,0,124,1
158,30,0,./static/experiments/de2/materials/stim_files/2.png,./static/experiments/de2/materials/stim_files/8.png,2,yes,,1730,0,124,1
159,31,0,./static/experiments/de2/materials/stim_files/2.png,./static/experiments/de2/materials/stim_files/13.png,2,yes,,992,0,124,1
160,0,0,./static/experiments/de2/materials/stim_files/7.png,./static/experiments/de2/materials/stim_files/16.png,2,no,,1198,1,198,1
161,1,0,./static/experiments/de2/materials/stim_files/12.png,./static/experiments/de2/materials/stim_files/15.png,2,yes,,980,1,198,1
162,2,0,./static/experiments/de2/materials/stim_files/12.png,./static/experiments/de2/materials/stim_files/8.png,2,no,,26525,1,198,1
163,3,0,./static/experiments/de2/materials/stim_files/3.png,./static/experiments/de2/materials/stim_files/12.png,2,no,,922,1,198,1
164,4,0,./static/experiments/de2/materials/stim_files/2.png,./static/experiments/de2/materials/stim_files/8.png,2,no,,1091,1,198,1
165,5,0,./static/experiments/de2/materials/stim_files/1.png,./static/experiments/de2/materials/stim_files/16.png,2,no,,872,1,198,1
166,6,0,./static/experiments/de2/materials/stim_files/1.png,./static/experiments/de2/materials/stim_files/11.png,2,no,,693,1,198,1
167,7,0,./static/experiments/de2/materials/stim_files/7.png,./static/experiments/de2/materials/stim_files/13.png,2,no,,1292,1,198,1
168,8,0,./static/experiments/de2/materials/stim_files/14.png,./static/experiments/de2/materials/stim_files/4.png,2,no,,1130,1,198,1
169,9,0,./static/experiments/de2/materials/stim_files/1.png,./static/experiments/de2/materials/stim_files/16.png,2,no,,813,1,198,1
170,10,0,./static/experiments/de2/materials/stim_files/2.png,./static/experiments/de2/materials/stim_files/15.png,2,no,,603,1,198,1
171,11,0,./static/experiments/de2/materials/stim_files/2.png,./static/experiments/de2/materials/stim_files/14.png,2,no,,773,1,198,1
172,12,0,./static/experiments/de2/materials/stim_files/5.png,./static/experiments/de2/materials/stim_files/16.png,2,no,,807,1,198,1
173,13,0,./static/experiments/de2/materials/stim_files/13.png,./static/experiments/de2/materials/stim_files/13.png,2,yes,,904,1,198,1
174,14,0,./static/experiments/de2/materials/stim_files/2.png,./static/experiments/de2/materials/stim_files/1.png,2,yes,,836,1,198,1
175,15,0,./static/experiments/de2/materials/stim_files/16.png,./static/experiments/de2/materials/stim_files/3.png,2,no,,988,1,198,1
176,16,0,./static/experiments/de2/materials/stim_files/14.png,./static/experiments/de2/materials/stim_files/14.png,2,yes,,858,1,198,1
177,17,0,./static/experiments/de2/materials/stim_files/11.png,./static/experiments/de2/materials/stim_files/9.png,2,yes,,972,1,198,1
178,18,0,./static/experiments/de2/materials/stim_files/11.png,./static/experiments/de2/materials/stim_files/16.png,2,no,,1085,1,198,1
179,19,0,./static/experiments/de2/materials/stim_files/5.png,./static/experiments/de2/materials/stim_files/10.png,2,no,,756,1,198,1
180,20,0,./static/experiments/de2/materials/stim_files/7.png,./static/experiments/de2/materials/stim_files/15.png,2,no,,1005,1,198,1
181,21,0,./static/experiments/de2/materials/stim_files/1.png,./static/experiments/de2/materials/stim_files/15.png,2,no,,850,1,198,1
182,22,0,./static/experiments/de2/materials/stim_files/6.png,./static/experiments/de2/materials/stim_files/2.png,2,no,,1099,1,198,1
183,23,0,./static/experiments/de2/materials/stim_files/8.png,./static/experiments/de2/materials/stim_files/6.png,2,yes,,1114,1,198,1
184,24,0,./static/experiments/de2/materials/stim_files/15.png,./static/experiments/de2/materials/stim_files/1.png,2,no,,1104,1,198,1
185,25,0,./static/experiments/de2/materials/stim_files/3.png,./static/experiments/de2/materials/stim_files/14.png,2,no,,739,1,198,1
186,26,0,./static/experiments/de2/materials/stim_files/3.png,./static/experiments/de2/materials/stim_files/6.png,2,yes,,1584,1,198,1
187,27,0,./static/experiments/de2/materials/stim_files/14.png,./static/experiments/de2/materials/stim_files/2.png,2,no,,1387,1,198,1
188,28,0,./static/experiments/de2/materials/stim_files/6.png,./static/experiments/de2/materials/stim_files/7.png,2,yes,,896,1,198,1
189,29,0,./static/experiments/de2/materials/stim_files/16.png,./static/experiments/de2/materials/stim_files/9.png,2,no,,2087,1,198,1
190,30,0,./static/experiments/de2/materials/stim_files/13.png,./static/experiments/de2/materials/stim_files/5.png,2,no,,830,1,198,1
191,31,0,./static/experiments/de2/materials/stim_files/4.png,./static/experiments/de2/materials/stim_files/11.png,2,no,,847,1,198,1
192,0,0,./static/experiments/de2/materials/stim_files/7.png,./static/experiments/de2/materials/stim_files/1.png,2,no,,3173,0,108,3
193,1,0,./static/experiments/de2/materials/stim_files/11.png,./static/experiments/de2/materials/stim_files/1.png,2,no,,2876,0,108,3
194,2,0,./static/experiments/de2/materials/stim_files/13.png,./static/experiments/de2/materials/stim_files/14.png,2,yes,,3690,0,108,3
195,3,0,./static/experiments/de2/materials/stim_files/16.png,./static/experiments/de2/materials/stim_files/7.png,2,no,,2308,0,108,3
196,4,0,./static/experiments/de2/materials/stim_files/16.png,./static/experiments/de2/materials/stim_files/6.png,2,no,,1227,0,108,3
197,5,0,./static/experiments/de2/materials/stim_files/16.png,./static/experiments/de2/materials/stim_files/1.png,2,no,,2121,0,108,3
198,6,0,./static/experiments/de2/materials/stim_files/3.png,./static/experiments/de2/materials/stim_files/5.png,2,no,,6664,0,108,3
199,7,0,./static/experiments/de2/materials/stim_files/1.png,./static/experiments/de2/materials/stim_files/15.png,2,no,,1397,0,108,3
200,8,0,./static/experiments/de2/materials/stim_files/2.png,./static/experiments/de2/materials/stim_files/13.png,2,no,,1381,0,108,3
201,9,0,./static/experiments/de2/materials/stim_files/7.png,./static/experiments/de2/materials/stim_files/6.png,2,yes,,3617,0,108,3
202,10,0,./static/experiments/de2/materials/stim_files/16.png,./static/experiments/de2/materials/stim_files/1.png,2,no,,1153,0,108,3
203,11,0,./static/experiments/de2/materials/stim_files/6.png,./static/experiments/de2/materials/stim_files/13.png,2,no,,1551,0,108,3
204,12,0,./static/experiments/de2/materials/stim_files/16.png,./static/experiments/de2/materials/stim_files/2.png,2,no,,1349,0,108,3
205,13,0,./static/experiments/de2/materials/stim_files/6.png,./static/experiments/de2/materials/stim_files/6.png,2,no,,3967,0,108,3
206,14,0,./static/experiments/de2/materials/stim_files/16.png,./static/experiments/de2/materials/stim_files/8.png,2,no,,2242,0,108,3
207,15,0,./static/experiments/de2/materials/stim_files/1.png,./static/experiments/de2/materials/stim_files/7.png,2,no,,2137,0,108,3
208,16,0,./static/experiments/de2/materials/stim_files/1.png,./static/experiments/de2/materials/stim_files/6.png,2,no,,1845,0,108,3
209,17,0,./static/experiments/de2/materials/stim_files/5.png,./static/experiments/de2/materials/stim_files/8.png,2,no,,6423,0,108,3
210,18,0,./static/experiments/de2/materials/stim_files/1.png,./static/experiments/de2/materials/stim_files/10.png,2,no,,1145,0,108,3
211,19,0,./static/experiments/de2/materials/stim_files/15.png,./static/experiments/de2/materials/stim_files/2.png,2,no,,1926,0,108,3
212,20,0,./static/experiments/de2/materials/stim_files/14.png,./static/experiments/de2/materials/stim_files/7.png,2,no,,1552,0,108,3
213,21,0,./static/experiments/de2/materials/stim_files/15.png,./static/experiments/de2/materials/stim_files/3.png,2,no,,1706,0,108,3
214,22,0,./static/experiments/de2/materials/stim_files/4.png,./static/experiments/de2/materials/stim_files/12.png,2,no,,1706,0,108,3
215,23,0,./static/experiments/de2/materials/stim_files/15.png,./static/experiments/de2/materials/stim_files/11.png,2,no,,5568,0,108,3
216,24,0,./static/experiments/de2/materials/stim_files/2.png,./static/experiments/de2/materials/stim_files/15.png,2,no,,1349,0,108,3
217,25,0,./static/experiments/de2/materials/stim_files/12.png,./static/experiments/de2/materials/stim_files/12.png,2,no,,2123,0,108,3
218,26,0,./static/experiments/de2/materials/stim_files/3.png,./static/experiments/de2/materials/stim_files/8.png,2,no,,1780,0,108,3
219,27,0,./static/experiments/de2/materials/stim_files/8.png,./static/experiments/de2/materials/stim_files/6.png,2,yes,,38661,0,108,3
220,28,0,./static/experiments/de2/materials/stim_files/13.png,./static/experiments/de2/materials/stim_files/16.png,2,yes,,3000,0,108,3
221,29,0,./static/experiments/de2/materials/stim_files/13.png,./static/experiments/de2/materials/stim_files/2.png,2,no,,1187,0,108,3
222,30,0,./static/experiments/de2/materials/stim_files/2.png,./static/experiments/de2/materials/stim_files/14.png,2,no,,1334,0,108,3
223,31,0,./static/experiments/de2/materials/stim_files/4.png,./static/experiments/de2/materials/stim_files/8.png,2,no,,1455,0,108,3
224,0,0,./static/experiments/de2/materials/stim_files/6.png,./static/experiments/de2/materials/stim_files/2.png,2,yes,,5658,0,227,3
225,1,0,./static/experiments/de2/materials/stim_files/13.png,./static/experiments/de2/materials/stim_files/6.png,2,yes,,2084,0,227,3
226,2,0,./static/experiments/de2/materials/stim_files/2.png,./static/experiments/de2/materials/stim_files/12.png,2,yes,,1026,0,227,3
227,3,0,./static/experiments/de2/materials/stim_files/16.png,./static/experiments/de2/materials/stim_files/6.png,2,yes,,725,0,227,3
228,4,0,./static/experiments/de2/materials/stim_files/1.png,./static/experiments/de2/materials/stim_files/12.png,2,yes,,711,0,227,3
229,5,0,./static/experiments/de2/materials/stim_files/15.png,./static/experiments/de2/materials/stim_files/1.png,2,yes,,497,0,227,3
230,6,0,./static/experiments/de2/materials/stim_files/9.png,./static/experiments/de2/materials/stim_files/6.png,2,yes,,878,0,227,3
231,7,0,./static/experiments/de2/materials/stim_files/16.png,./static/experiments/de2/materials/stim_files/9.png,2,yes,,430,0,227,3
232,8,0,./static/experiments/de2/materials/stim_files/7.png,./static/experiments/de2/materials/stim_files/7.png,2,yes,,400,0,227,3
233,9,0,./static/experiments/de2/materials/stim_files/9.png,./static/experiments/de2/materials/stim_files/5.png,2,yes,,453,0,227,3
234,10,0,./static/experiments/de2/materials/stim_files/1.png,./static/experiments/de2/materials/stim_files/16.png,2,yes,,438,0,227,3
235,11,0,./static/experiments/de2/materials/stim_files/15.png,./static/experiments/de2/materials/stim_files/7.png,2,yes,,479,0,227,3
236,12,0,./static/experiments/de2/materials/stim_files/1.png,./static/experiments/de2/materials/stim_files/14.png,2,yes,,441,0,227,3
237,13,0,./static/experiments/de2/materials/stim_files/3.png,./static/experiments/de2/materials/stim_files/4.png,2,yes,,499,0,227,3
238,14,0,./static/experiments/de2/materials/stim_files/6.png,./static/experiments/de2/materials/stim_files/1.png,2,yes,,402,0,227,3
239,15,0,./static/experiments/de2/materials/stim_files/1.png,./static/experiments/de2/materials/stim_files/16.png,2,yes,,354,0,227,3
240,16,0,./static/experiments/de2/materials/stim_files/12.png,./static/experiments/de2/materials/stim_files/7.png,2,yes,,318,0,227,3
241,17,0,./static/experiments/de2/materials/stim_files/3.png,./static/experiments/de2/materials/stim_files/5.png,2,yes,,312,0,227,3
242,18,0,./static/experiments/de2/materials/stim_files/16.png,./static/experiments/de2/materials/stim_files/2.png,2,yes,,399,0,227,3
243,19,0,./static/experiments/de2/materials/stim_files/7.png,./static/experiments/de2/materials/stim_files/10.png,2,yes,,477,0,227,3
244,20,0,./static/experiments/de2/materials/stim_files/15.png,./static/experiments/de2/materials/stim_files/3.png,2,yes,,309,0,227,3
245,21,0,./static/experiments/de2/materials/stim_files/8.png,./static/experiments/de2/materials/stim_files/2.png,2,yes,,478,0,227,3
246,22,0,./static/experiments/de2/materials/stim_files/15.png,./static/experiments/de2/materials/stim_files/2.png,2,yes,,476,0,227,3
247,23,0,./static/experiments/de2/materials/stim_files/1.png,./static/experiments/de2/materials/stim_files/1.png,2,yes,,315,0,227,3
248,24,0,./static/experiments/de2/materials/stim_files/12.png,./static/experiments/de2/materials/stim_files/14.png,2,yes,,417,0,227,3
249,25,0,./static/experiments/de2/materials/stim_files/13.png,./static/experiments/de2/materials/stim_files/4.png,2,yes,,584,0,227,3
250,26,0,./static/experiments/de2/materials/stim_files/13.png,./static/experiments/de2/materials/stim_files/2.png,2,yes,,868,0,227,3
251,27,0,./static/experiments/de2/materials/stim_files/8.png,./static/experiments/de2/materials/stim_files/14.png,2,yes,,564,0,227,3
252,28,0,./static/experiments/de2/materials/stim_files/10.png,./static/experiments/de2/materials/stim_files/2.png,2,yes,,557,0,227,3
253,29,0,./static/experiments/de2/materials/stim_files/5.png,./static/experiments/de2/materials/stim_files/6.png,2,yes,,361,0,227,3
254,30,0,./static/experiments/de2/materials/stim_files/15.png,./static/experiments/de2/materials/stim_files/3.png,2,yes,,314,0,227,3
255,31,0,./static/experiments/de2/materials/stim_files/12.png,./static/experiments/de2/materials/stim_files/3.png,2,yes,,306,0,227,3
256,0,0,./static/experiments/de2/materials/stim_files/16.png,./static/experiments/de2/materials/stim_files/5.png,2,yes,,5493,0,178,2
257,1,0,./static/experiments/de2/materials/stim_files/16.png,./static/experiments/de2/materials/stim_files/2.png,2,yes,,5463,0,178,2
258,2,0,./static/experiments/de2/materials/stim_files/8.png,./static/experiments/de2/materials/stim_files/15.png,2,no,,5064,0,178,2
259,3,0,./static/experiments/de2/materials/stim_files/8.png,./static/experiments/de2/materials/stim_files/16.png,2,no,,2940,0,178,2
260,4,0,./static/experiments/de2/materials/stim_files/14.png,./static/experiments/de2/materials/stim_files/4.png,2,yes,,1337,0,178,2
261,5,0,./static/experiments/de2/materials/stim_files/6.png,./static/experiments/de2/materials/stim_files/10.png,2,no,,1577,0,178,2
262,6,0,./static/experiments/de2/materials/stim_files/11.png,./static/experiments/de2/materials/stim_files/10.png,2,no,,1169,0,178,2
263,7,0,./static/experiments/de2/materials/stim_files/9.png,./static/experiments/de2/materials/stim_files/8.png,2,no,,845,0,178,2
264,8,0,./static/experiments/de2/materials/stim_files/13.png,./static/experiments/de2/materials/stim_files/16.png,2,no,,1090,0,178,2
265,9,0,./static/experiments/de2/materials/stim_files/4.png,./static/experiments/de2/materials/stim_files/13.png,2,yes,,886,0,178,2
266,10,0,./static/experiments/de2/materials/stim_files/16.png,./static/experiments/de2/materials/stim_files/1.png,2,yes,,1001,0,178,2
267,11,0,./static/experiments/de2/materials/stim_files/2.png,./static/experiments/de2/materials/stim_files/8.png,2,yes,,1243,0,178,2
268,12,0,./static/experiments/de2/materials/stim_files/16.png,./static/experiments/de2/materials/stim_files/1.png,2,yes,,726,0,178,2
269,13,0,./static/experiments/de2/materials/stim_files/12.png,./static/experiments/de2/materials/stim_files/4.png,2,yes,,1814,0,178,2
270,14,0,./static/experiments/de2/materials/stim_files/14.png,./static/experiments/de2/materials/stim_files/9.png,2,no,,3545,0,178,2
271,15,0,./static/experiments/de2/materials/stim_files/15.png,./static/experiments/de2/materials/stim_files/1.png,2,yes,,807,0,178,2
272,16,0,./static/experiments/de2/materials/stim_files/14.png,./static/experiments/de2/materials/stim_files/1.png,2,yes,,726,0,178,2
273,17,0,./static/experiments/de2/materials/stim_files/10.png,./static/experiments/de2/materials/stim_files/5.png,2,yes,,1116,0,178,2
274,18,0,./static/experiments/de2/materials/stim_files/14.png,./static/experiments/de2/materials/stim_files/12.png,2,no,,795,0,178,2
275,19,0,./static/experiments/de2/materials/stim_files/4.png,./static/experiments/de2/materials/stim_files/11.png,2,yes,,1571,0,178,2
276,20,0,./static/experiments/de2/materials/stim_files/7.png,./static/experiments/de2/materials/stim_files/5.png,2,no,,1087,0,178,2
277,21,0,./static/experiments/de2/materials/stim_files/6.png,./static/experiments/de2/materials/stim_files/16.png,2,yes,,1275,0,178,2
278,22,0,./static/experiments/de2/materials/stim_files/5.png,./static/experiments/de2/materials/stim_files/16.png,2,yes,,814,0,178,2
279,23,0,./static/experiments/de2/materials/stim_files/1.png,./static/experiments/de2/materials/stim_files/10.png,2,yes,,716,0,178,2
280,24,0,./static/experiments/de2/materials/stim_files/2.png,./static/experiments/de2/materials/stim_files/15.png,2,yes,,563,0,178,2
281,25,0,./static/experiments/de2/materials/stim_files/2.png,./static/experiments/de2/materials/stim_files/5.png,2,no,,1244,0,178,2
282,26,0,./static/experiments/de2/materials/stim_files/1.png,./static/experiments/de2/materials/stim_files/5.png,2,no,,1742,0,178,2
283,27,0,./static/experiments/de2/materials/stim_files/6.png,./static/experiments/de2/materials/stim_files/6.png,2,no,,839,0,178,2
284,28,0,./static/experiments/de2/materials/stim_files/4.png,./static/experiments/de2/materials/stim_files/4.png,2,no,,573,0,178,2
285,29,0,./static/experiments/de2/materials/stim_files/15.png,./static/experiments/de2/materials/stim_files/3.png,2,yes,,603,0,178,2
286,30,0,./static/experiments/de2/materials/stim_files/13.png,./static/experiments/de2/materials/stim_files/1.png,2,yes,,534,0,178,2
287,31,0,./static/experiments/de2/materials/stim_files/9.png,./static/experiments/de2/materials/stim_files/3.png,2,yes,,431,0,178,2
288,0,0,./static/experiments/de2/materials/stim_files/1.png,./static/experiments/de2/materials/stim_files/16.png,2,no,,2720,1,28,4
289,1,0,./static/experiments/de2/materials/stim_files/5.png,./static/experiments/de2/materials/stim_files/9.png,2,no,,3702,1,28,4
290,2,0,./static/experiments/de2/materials/stim_files/4.png,./static/experiments/de2/materials/stim_files/15.png,2,no,,5694,1,28,4
291,3,0,./static/experiments/de2/materials/stim_files/1.png,./static/experiments/de2/materials/stim_files/16.png,2,no,,6264,1,28,4
292,4,0,./static/experiments/de2/materials/stim_files/8.png,./static/experiments/de2/materials/stim_files/16.png,2,no,,1183,1,28,4
293,5,0,./static/experiments/de2/materials/stim_files/3.png,./static/experiments/de2/materials/stim_files/9.png,2,no,,914,1,28,4
294,6,0,./static/experiments/de2/materials/stim_files/6.png,./static/experiments/de2/materials/stim_files/12.png,2,no,,906,1,28,4
295,7,0,./static/experiments/de2/materials/stim_files/13.png,./static/experiments/de2/materials/stim_files/1.png,2,no,,915,1,28,4
296,8,0,./static/experiments/de2/materials/stim_files/15.png,./static/experiments/de2/materials/stim_files/8.png,2,no,,1081,1,28,4
297,9,0,./static/experiments/de2/materials/stim_files/9.png,./static/experiments/de2/materials/stim_files/10.png,2,no,,1940,1,28,4
298,10,0,./static/experiments/de2/materials/stim_files/14.png,./static/experiments/de2/materials/stim_files/3.png,2,no,,923,1,28,4
299,11,0,./static/experiments/de2/materials/stim_files/16.png,./static/experiments/de2/materials/stim_files/2.png,2,no,,971,1,28,4
300,12,0,./static/experiments/de2/materials/stim_files/4.png,./static/experiments/de2/materials/stim_files/12.png,2,no,,912,1,28,4
301,13,0,./static/experiments/de2/materials/stim_files/3.png,./static/experiments/de2/materials/stim_files/15.png,2,no,,2073,1,28,4
302,14,0,./static/experiments/de2/materials/stim_files/8.png,./static/experiments/de2/materials/stim_files/4.png,2,no,,1686,1,28,4
303,15,0,./static/experiments/de2/materials/stim_files/14.png,./static/experiments/de2/materials/stim_files/15.png,2,no,,1844,1,28,4
304,16,0,./static/experiments/de2/materials/stim_files/2.png,./static/experiments/de2/materials/stim_files/15.png,2,no,,860,1,28,4
305,17,0,./static/experiments/de2/materials/stim_files/2.png,./static/experiments/de2/materials/stim_files/9.png,2,no,,2734,1,28,4
306,18,0,./static/experiments/de2/materials/stim_files/14.png,./static/experiments/de2/materials/stim_files/16.png,2,no,,791,1,28,4
307,19,0,./static/experiments/de2/materials/stim_files/6.png,./static/experiments/de2/materials/stim_files/3.png,2,no,,555,1,28,4
308,20,0,./static/experiments/de2/materials/stim_files/11.png,./static/experiments/de2/materials/stim_files/16.png,2,no,,449,1,28,4
309,21,0,./static/experiments/de2/materials/stim_files/1.png,./static/experiments/de2/materials/stim_files/14.png,2,no,,591,1,28,4
310,22,0,./static/experiments/de2/materials/stim_files/11.png,./static/experiments/de2/materials/stim_files/14.png,2,no,,444,1,28,4
311,23,0,./static/experiments/de2/materials/stim_files/4.png,./static/experiments/de2/materials/stim_files/2.png,2,no,,512,1,28,4
312,24,0,./static/experiments/de2/materials/stim_files/16.png,./static/experiments/de2/materials/stim_files/2.png,2,no,,512,1,28,4
313,25,0,./static/experiments/de2/materials/stim_files/2.png,./static/experiments/de2/materials/stim_files/12.png,2,no,,451,1,28,4
314,26,0,./static/experiments/de2/materials/stim_files/2.png,./static/experiments/de2/materials/stim_files/2.png,2,yes,,3971,1,28,4
315,27,0,./static/experiments/de2/materials/stim_files/1.png,./static/experiments/de2/materials/stim_files/10.png,2,no,,1038,1,28,4
316,28,0,./static/experiments/de2/materials/stim_files/7.png,./static/experiments/de2/materials/stim_files/16.png,2,no,,798,1,28,4
317,29,0,./static/experiments/de2/materials/stim_files/1.png,./static/experiments/de2/materials/stim_files/6.png,2,no,,693,1,28,4
318,30,0,./static/experiments/de2/materials/stim_files/16.png,./static/experiments/de2/materials/stim_files/6.png,2,no,,767,1,28,4
319,31,0,./static/experiments/de2/materials/stim_files/11.png,./static/experiments/de2/materials/stim_files/11.png,2,yes,,1864,1,28,4
320,0,0,./static/experiments/de2/materials/stim_files/14.png,./static/experiments/de2/materials/stim_files/2.png,2,no,,16925,1,8,3
321,1,0,./static/experiments/de2/materials/stim_files/7.png,./static/experiments/de2/materials/stim_files/7.png,2,yes,,2801,1,8,3
322,2,0,./static/experiments/de2/materials/stim_files/16.png,./static/experiments/de2/materials/stim_files/1.png,2,no,,86830,1,8,3
323,3,0,./static/experiments/de2/materials/stim_files/2.png,./static/experiments/de2/materials/stim_files/8.png,2,no,,8620,1,8,3
324,4,0,./static/experiments/de2/materials/stim_files/3.png,./static/experiments/de2/materials/stim_files/14.png,2,yes,,7891,1,8,3
325,5,0,./static/experiments/de2/materials/stim_files/12.png,./static/experiments/de2/materials/stim_files/2.png,2,yes,,1558,1,8,3
326,6,0,./static/experiments/de2/materials/stim_files/1.png,./static/experiments/de2/materials/stim_files/10.png,2,yes,,1137,1,8,3
327,7,0,./static/experiments/de2/materials/stim_files/1.png,./static/experiments/de2/materials/stim_files/14.png,2,yes,,1052,1,8,3
328,8,0,./static/experiments/de2/materials/stim_files/1.png,./static/experiments/de2/materials/stim_files/13.png,2,yes,,2490,1,8,3
329,9,0,./static/experiments/de2/materials/stim_files/10.png,./static/experiments/de2/materials/stim_files/12.png,2,no,,2146,1,8,3
330,10,0,./static/experiments/de2/materials/stim_files/2.png,./static/experiments/de2/materials/stim_files/3.png,2,yes,,6848,1,8,3
331,11,0,./static/experiments/de2/materials/stim_files/1.png,./static/experiments/de2/materials/stim_files/8.png,2,yes,,1901,1,8,3
332,12,0,./static/experiments/de2/materials/stim_files/13.png,./static/experiments/de2/materials/stim_files/8.png,2,yes,,1124,1,8,3
333,13,0,./static/experiments/de2/materials/stim_files/16.png,./static/experiments/de2/materials/stim_files/2.png,2,yes,,1101,1,8,3
334,14,0,./static/experiments/de2/materials/stim_files/3.png,./static/experiments/de2/materials/stim_files/14.png,2,yes,,1126,1,8,3
335,15,0,./static/experiments/de2/materials/stim_files/1.png,./static/experiments/de2/materials/stim_files/16.png,2,yes,,1028,1,8,3
336,16,0,./static/experiments/de2/materials/stim_files/5.png,./static/experiments/de2/materials/stim_files/13.png,2,yes,,1069,1,8,3
337,17,0,./static/experiments/de2/materials/stim_files/7.png,./static/experiments/de2/materials/stim_files/3.png,2,yes,,1218,1,8,3
338,18,0,./static/experiments/de2/materials/stim_files/14.png,./static/experiments/de2/materials/stim_files/8.png,2,yes,,864,1,8,3
339,19,0,./static/experiments/de2/materials/stim_files/15.png,./static/experiments/de2/materials/stim_files/10.png,2,yes,,867,1,8,3
340,20,0,./static/experiments/de2/materials/stim_files/4.png,./static/experiments/de2/materials/stim_files/14.png,2,yes,,879,1,8,3
341,21,0,./static/experiments/de2/materials/stim_files/16.png,./static/experiments/de2/materials/stim_files/2.png,2,yes,,958,1,8,3
342,22,0,./static/experiments/de2/materials/stim_files/11.png,./static/experiments/de2/materials/stim_files/13.png,2,yes,,2277,1,8,3
343,23,0,./static/experiments/de2/materials/stim_files/15.png,./static/experiments/de2/materials/stim_files/7.png,2,yes,,1074,1,8,3
344,24,0,./static/experiments/de2/materials/stim_files/9.png,./static/experiments/de2/materials/stim_files/16.png,2,yes,,1284,1,8,3
345,25,0,./static/experiments/de2/materials/stim_files/6.png,./static/experiments/de2/materials/stim_files/2.png,2,yes,,812,1,8,3
346,26,0,./static/experiments/de2/materials/stim_files/2.png,./static/experiments/de2/materials/stim_files/15.png,2,yes,,800,1,8,3
347,27,0,./static/experiments/de2/materials/stim_files/12.png,./static/experiments/de2/materials/stim_files/11.png,2,no,,1408,1,8,3
348,28,0,./static/experiments/de2/materials/stim_files/7.png,./static/experiments/de2/materials/stim_files/4.png,2,yes,,1133,1,8,3
349,29,0,./static/experiments/de2/materials/stim_files/3.png,./static/experiments/de2/materials/stim_files/6.png,2,yes,,918,1,8,3
350,30,0,./static/experiments/de2/materials/stim_files/11.png,./static/experiments/de2/materials/stim_files/11.png,2,no,,1083,1,8,3
351,31,0,./static/experiments/de2/materials/stim_files/3.png,./static/experiments/de2/materials/stim_files/12.png,2,yes,,1218,1,8,3
352,0,0,./static/experiments/de2/materials/stim_files/2.png,./static/experiments/de2/materials/stim_files/16.png,2,no,,7830,1,110,3
353,1,0,./static/experiments/de2/materials/stim_files/12.png,./static/experiments/de2/materials/stim_files/12.png,2,yes,,1931,1,110,3
354,2,0,./static/experiments/de2/materials/stim_files/15.png,./static/experiments/de2/materials/stim_files/1.png,2,no,,3007,1,110,3
355,3,0,./static/experiments/de2/materials/stim_files/7.png,./static/experiments/de2/materials/stim_files/8.png,2,yes,,1652,1,110,3
356,4,0,./static/experiments/de2/materials/stim_files/5.png,./static/experiments/de2/materials/stim_files/7.png,2,yes,,1721,1,110,3
357,5,0,./static/experiments/de2/materials/stim_files/10.png,./static/experiments/de2/materials/stim_files/8.png,2,yes,,1518,1,110,3
358,6,0,./static/experiments/de2/materials/stim_files/6.png,./static/experiments/de2/materials/stim_files/10.png,2,yes,,1413,1,110,3
359,7,0,./static/experiments/de2/materials/stim_files/16.png,./static/experiments/de2/materials/stim_files/1.png,2,no,,1368,1,110,3
360,8,0,./static/experiments/de2/materials/stim_files/1.png,./static/experiments/de2/materials/stim_files/16.png,2,no,,984,1,110,3
361,9,0,./static/experiments/de2/materials/stim_files/12.png,./static/experiments/de2/materials/stim_files/3.png,2,no,,1060,1,110,3
362,10,0,./static/experiments/de2/materials/stim_files/16.png,./static/experiments/de2/materials/stim_files/13.png,2,yes,,1096,1,110,3
363,11,0,./static/experiments/de2/materials/stim_files/3.png,./static/experiments/de2/materials/stim_files/12.png,2,no,,867,1,110,3
364,12,0,./static/experiments/de2/materials/stim_files/7.png,./static/experiments/de2/materials/stim_files/14.png,2,no,,697,1,110,3
365,13,0,./static/experiments/de2/materials/stim_files/15.png,./static/experiments/de2/materials/stim_files/3.png,2,no,,913,1,110,3
366,14,0,./static/experiments/de2/materials/stim_files/13.png,./static/experiments/de2/materials/stim_files/3.png,2,no,,675,1,110,3
367,15,0,./static/experiments/de2/materials/stim_files/12.png,./static/experiments/de2/materials/stim_files/2.png,2,no,,631,1,110,3
368,16,0,./static/experiments/de2/materials/stim_files/10.png,./static/experiments/de2/materials/stim_files/2.png,2,no,,599,1,110,3
369,17,0,./static/experiments/de2/materials/stim_files/2.png,./static/experiments/de2/materials/stim_files/14.png,2,no,,697,1,110,3
370,18,0,./static/experiments/de2/materials/stim_files/8.png,./static/experiments/de2/materials/stim_files/4.png,2,no,,573,1,110,3
371,19,0,./static/experiments/de2/materials/stim_files/16.png,./static/experiments/de2/materials/stim_files/3.png,2,no,,686,1,110,3
372,20,0,./static/experiments/de2/materials/stim_files/2.png,./static/experiments/de2/materials/stim_files/7.png,2,no,,1726,1,110,3
373,21,0,./static/experiments/de2/materials/stim_files/1.png,./static/experiments/de2/materials/stim_files/14.png,2,no,,749,1,110,3
374,22,0,./static/experiments/de2/materials/stim_files/5.png,./static/experiments/de2/materials/stim_files/12.png,2,no,,605,1,110,3
375,23,0,./static/experiments/de2/materials/stim_files/2.png,./static/experiments/de2/materials/stim_files/2.png,2,yes,,728,1,110,3
376,24,0,./static/experiments/de2/materials/stim_files/10.png,./static/experiments/de2/materials/stim_files/11.png,2,yes,,584,1,110,3
377,25,0,./static/experiments/de2/materials/stim_files/12.png,./static/experiments/de2/materials/stim_files/1.png,2,no,,766,1,110,3
378,26,0,./static/experiments/de2/materials/stim_files/5.png,./static/experiments/de2/materials/stim_files/11.png,2,no,,667,1,110,3
379,27,0,./static/experiments/de2/materials/stim_files/8.png,./static/experiments/de2/materials/stim_files/11.png,2,no,,586,1,110,3
380,28,0,./static/experiments/de2/materials/stim_files/16.png,./static/experiments/de2/materials/stim_files/8.png,2,no,,598,1,110,3
381,29,0,./static/experiments/de2/materials/stim_files/3.png,./static/experiments/de2/materials/stim_files/14.png,2,no,,528,1,110,3
382,30,0,./static/experiments/de2/materials/stim_files/6.png,./static/experiments/de2/materials/stim_files/12.png,2,no,,574,1,110,3
383,31,0,./static/experiments/de2/materials/stim_files/9.png,./static/experiments/de2/materials/stim_files/4.png,2,no,,711,1,110,3
384,0,0,./static/experiments/de2/materials/stim_files/3.png,./static/experiments/de2/materials/stim_files/1.png,2,yes,,11305,1,48,1
385,1,0,./static/experiments/de2/materials/stim_files/14.png,./static/experiments/de2/materials/stim_files/7.png,2,no,,4475,1,48,1
386,2,0,./static/experiments/de2/materials/stim_files/1.png,./static/experiments/de2/materials/stim_files/10.png,2,no,,1150,1,48,1
387,3,0,./static/experiments/de2/materials/stim_files/9.png,./static/experiments/de2/materials/stim_files/4.png,2,no,,1325,1,48,1
388,4,0,./static/experiments/de2/materials/stim_files/16.png,./static/experiments/de2/materials/stim_files/1.png,2,no,,1300,1,48,1
389,5,0,./static/experiments/de2/materials/stim_files/1.png,./static/experiments/de2/materials/stim_files/13.png,2,no,,858,1,48,1
390,6,0,./static/experiments/de2/materials/stim_files/7.png,./static/experiments/de2/materials/stim_files/15.png,2,no,,952,1,48,1
391,7,0,./static/experiments/de2/materials/stim_files/11.png,./static/experiments/de2/materials/stim_files/7.png,2,no,,1233,1,48,1
392,8,0,./static/experiments/de2/materials/stim_files/6.png,./static/experiments/de2/materials/stim_files/16.png,2,no,,1292,1,48,1
393,9,0,./static/experiments/de2/materials/stim_files/16.png,./static/experiments/de2/materials/stim_files/8.png,2,no,,1051,1,48,1
394,10,0,./static/experiments/de2/materials/stim_files/4.png,./static/experiments/de2/materials/stim_files/8.png,2,no,,882,1,48,1
395,11,0,./static/experiments/de2/materials/stim_files/11.png,./static/experiments/de2/materials/stim_files/11.png,2,yes,,1026,1,48,1
396,12,0,./static/experiments/de2/materials/stim_files/3.png,./static/experiments/de2/materials/stim_files/16.png,2,no,,933,1,48,1
397,13,0,./static/experiments/de2/materials/stim_files/8.png,./static/experiments/de2/materials/stim_files/8.png,2,yes,,942,1,48,1
398,14,0,./static/experiments/de2/materials/stim_files/5.png,./static/experiments/de2/materials/stim_files/14.png,2,no,,732,1,48,1
399,15,0,./static/experiments/de2/materials/stim_files/2.png,./static/experiments/de2/materials/stim_files/14.png,2,no,,1102,1,48,1
400,16,0,./static/experiments/de2/materials/stim_files/16.png,./static/experiments/de2/materials/stim_files/10.png,2,no,,1299,1,48,1
401,17,0,./static/experiments/de2/materials/stim_files/9.png,./static/experiments/de2/materials/stim_files/4.png,2,no,,1817,1,48,1
402,18,0,./static/experiments/de2/materials/stim_files/16.png,./static/experiments/de2/materials/stim_files/1.png,2,no,,1006,1,48,1
403,19,0,./static/experiments/de2/materials/stim_files/10.png,./static/experiments/de2/materials/stim_files/3.png,2,no,,888,1,48,1
404,20,0,./static/experiments/de2/materials/stim_files/12.png,./static/experiments/de2/materials/stim_files/1.png,2,no,,652,1,48,1
405,21,0,./static/experiments/de2/materials/stim_files/12.png,./static/experiments/de2/materials/stim_files/11.png,2,yes,,1013,1,48,1
406,22,0,./static/experiments/de2/materials/stim_files/1.png,./static/experiments/de2/materials/stim_files/15.png,2,no,,814,1,48,1
407,23,0,./static/experiments/de2/materials/stim_files/16.png,./static/experiments/de2/materials/stim_files/2.png,2,no,,2549,1,48,1
408,24,0,./static/experiments/de2/materials/stim_files/8.png,./static/experiments/de2/materials/stim_files/14.png,2,no,,2339,1,48,1
409,25,0,./static/experiments/de2/materials/stim_files/11.png,./static/experiments/de2/materials/stim_files/1.png,2,no,,759,1,48,1
410,26,0,./static/experiments/de2/materials/stim_files/15.png,./static/experiments/de2/materials/stim_files/12.png,2,yes,,1215,1,48,1
411,27,0,./static/experiments/de2/materials/stim_files/16.png,./static/experiments/de2/materials/stim_files/14.png,2,yes,,922,1,48,1
412,28,0,./static/experiments/de2/materials/stim_files/12.png,./static/experiments/de2/materials/stim_files/11.png,2,yes,,908,1,48,1
413,29,0,./static/experiments/de2/materials/stim_files/16.png,./static/experiments/de2/materials/stim_files/3.png,2,no,,981,1,48,1
414,30,0,./static/experiments/de2/materials/stim_files/12.png,./static/experiments/de2/materials/stim_files/9.png,2,yes,,1788,1,48,1
415,31,0,./static/experiments/de2/materials/stim_files/16.png,./static/experiments/de2/materials/stim_files/5.png,2,no,,854,1,48,1
416,0,0,./static/experiments/de2/materials/stim_files/1.png,./static/experiments/de2/materials/stim_files/16.png,2,no,,2651,1,96,1
417,1,0,./static/experiments/de2/materials/stim_files/5.png,./static/experiments/de2/materials/stim_files/3.png,2,yes,,1640,1,96,1
418,2,0,./static/experiments/de2/materials/stim_files/16.png,./static/experiments/de2/materials/stim_files/13.png,2,yes,,1220,1,96,1
419,3,0,./static/experiments/de2/materials/stim_files/12.png,./static/experiments/de2/materials/stim_files/11.png,2,yes,,886,1,96,1
420,4,0,./static/experiments/de2/materials/stim_files/1.png,./static/experiments/de2/materials/stim_files/15.png,2,no,,1286,1,96,1
421,5,0,./static/experiments/de2/materials/stim_files/3.png,./static/experiments/de2/materials/stim_files/16.png,2,no,,670,1,96,1
422,6,0,./static/experiments/de2/materials/stim_files/11.png,./static/experiments/de2/materials/stim_files/15.png,2,yes,,1352,1,96,1
423,7,0,./static/experiments/de2/materials/stim_files/16.png,./static/experiments/de2/materials/stim_files/9.png,2,no,,1485,1,96,1
424,8,0,./static/experiments/de2/materials/stim_files/1.png,./static/experiments/de2/materials/stim_files/11.png,2,no,,963,1,96,1
425,9,0,./static/experiments/de2/materials/stim_files/8.png,./static/experiments/de2/materials/stim_files/5.png,2,yes,,983,1,96,1
426,10,0,./static/experiments/de2/materials/stim_files/14.png,./static/experiments/de2/materials/stim_files/14.png,2,yes,,1047,1,96,1
427,11,0,./static/experiments/de2/materials/stim_files/14.png,./static/experiments/de2/materials/stim_files/8.png,2,no,,965,1,96,1
428,12,0,./static/experiments/de2/materials/stim_files/14.png,./static/experiments/de2/materials/stim_files/13.png,2,yes,,879,1,96,1
429,13,0,./static/experiments/de2/materials/stim_files/1.png,./static/experiments/de2/materials/stim_files/13.png,2,no,,875,1,96,1
430,14,0,./static/experiments/de2/materials/stim_files/9.png,./static/experiments/de2/materials/stim_files/14.png,2,no,,2141,1,96,1
431,15,0,./static/experiments/de2/materials/stim_files/9.png,./static/experiments/de2/materials/stim_files/16.png,2,no,,990,1,96,1
432,16,0,./static/experiments/de2/materials/stim_files/16.png,./static/experiments/de2/materials/stim_files/4.png,2,yes,,1008,1,96,1
433,17,0,./static/experiments/de2/materials/stim_files/2.png,./static/experiments/de2/materials/stim_files/16.png,2,no,,1183,1,96,1
434,18,0,./static/experiments/de2/materials/stim_files/12.png,./static/experiments/de2/materials/stim_files/1.png,2,no,,845,1,96,1
435,19,0,./static/experiments/de2/materials/stim_files/2.png,./static/experiments/de2/materials/stim_files/15.png,2,no,,829,1,96,1
436,20,0,./static/experiments/de2/materials/stim_files/3.png,./static/experiments/de2/materials/stim_files/13.png,2,no,,684,1,96,1
437,21,0,./static/experiments/de2/materials/stim_files/6.png,./static/experiments/de2/materials/stim_files/15.png,2,no,,703,1,96,1
438,22,0,./static/experiments/de2/materials/stim_files/14.png,./static/experiments/de2/materials/stim_files/5.png,2,no,,676,1,96,1
439,23,0,./static/experiments/de2/materials/stim_files/5.png,./static/experiments/de2/materials/stim_files/16.png,2,no,,627,1,96,1
440,24,0,./static/experiments/de2/materials/stim_files/12.png,./static/experiments/de2/materials/stim_files/4.png,2,no,,629,1,96,1
441,25,0,./static/experiments/de2/materials/stim_files/8.png,./static/experiments/de2/materials/stim_files/16.png,2,no,,847,1,96,1
442,26,0,./static/experiments/de2/materials/stim_files/1.png,./static/experiments/de2/materials/stim_files/16.png,2,no,,663,1,96,1
443,27,0,./static/experiments/de2/materials/stim_files/12.png,./static/experiments/de2/materials/stim_files/14.png,2,yes,,1302,1,96,1
444,28,0,./static/experiments/de2/materials/stim_files/13.png,./static/experiments/de2/materials/stim_files/9.png,2,yes,,991,1,96,1
445,29,0,./static/experiments/de2/materials/stim_files/9.png,./static/experiments/de2/materials/stim_files/4.png,2,yes,,2053,1,96,1
446,30,0,./static/experiments/de2/materials/stim_files/7.png,./static/experiments/de2/materials/stim_files/7.png,2,yes,,854,1,96,1
447,31,0,./static/experiments/de2/materials/stim_files/15.png,./static/experiments/de2/materials/stim_files/9.png,2,no,,1358,1,96,1
448,0,0,./static/experiments/de2/materials/stim_files/12.png,./static/experiments/de2/materials/stim_files/6.png,2,yes,,7263,0,223,2
449,1,0,./static/experiments/de2/materials/stim_files/4.png,./static/experiments/de2/materials/stim_files/4.png,2,no,,2298,0,223,2
450,2,0,./static/experiments/de2/materials/stim_files/7.png,./static/experiments/de2/materials/stim_files/15.png,2,yes,,536,0,223,2
451,3,0,./static/experiments/de2/materials/stim_files/5.png,./static/experiments/de2/materials/stim_files/4.png,2,no,,655,0,223,2
452,4,0,./static/experiments/de2/materials/stim_files/16.png,./static/experiments/de2/materials/stim_files/4.png,2,yes,,452,0,223,2
453,5,0,./static/experiments/de2/materials/stim_files/9.png,./static/experiments/de2/materials/stim_files/6.png,2,no,,854,0,223,2
454,6,0,./static/experiments/de2/materials/stim_files/2.png,./static/experiments/de2/materials/stim_files/16.png,2,yes,,517,0,223,2
455,7,0,./static/experiments/de2/materials/stim_files/16.png,./static/experiments/de2/materials/stim_files/10.png,2,no,,1236,0,223,2
456,8,0,./static/experiments/de2/materials/stim_files/12.png,./static/experiments/de2/materials/stim_files/14.png,2,no,,643,0,223,2
457,9,0,./static/experiments/de2/materials/stim_files/16.png,./static/experiments/de2/materials/stim_files/9.png,2,yes,,894,0,223,2
458,10,0,./static/experiments/de2/materials/stim_files/6.png,./static/experiments/de2/materials/stim_files/16.png,2,yes,,590,0,223,2
459,11,0,./static/experiments/de2/materials/stim_files/4.png,./static/experiments/de2/materials/stim_files/2.png,2,no,,502,0,223,2
460,12,0,./static/experiments/de2/materials/stim_files/16.png,./static/experiments/de2/materials/stim_files/1.png,2,no,,1970,0,223,2
461,13,0,./static/experiments/de2/materials/stim_files/8.png,./static/experiments/de2/materials/stim_files/7.png,2,no,,1066,0,223,2
462,14,0,./static/experiments/de2/materials/stim_files/11.png,./static/experiments/de2/materials/stim_files/16.png,2,no,,698,0,223,2
463,15,0,./static/experiments/de2/materials/stim_files/2.png,./static/experiments/de2/materials/stim_files/14.png,2,yes,,1190,0,223,2
464,16,0,./static/experiments/de2/materials/stim_files/5.png,./static/experiments/de2/materials/stim_files/16.png,2,yes,,747,0,223,2
465,17,0,./static/experiments/de2/materials/stim_files/12.png,./static/experiments/de2/materials/stim_files/16.png,2,no,,536,0,223,2
466,18,0,./static/experiments/de2/materials/stim_files/11.png,./static/experiments/de2/materials/stim_files/7.png,2,no,,1078,0,223,2
467,19,0,./static/experiments/de2/materials/stim_files/10.png,./static/experiments/de2/materials/stim_files/1.png,2,yes,,2808,0,223,2
468,20,0,./static/experiments/de2/materials/stim_files/13.png,./static/experiments/de2/materials/stim_files/6.png,2,yes,,1249,0,223,2
469,21,0,./static/experiments/de2/materials/stim_files/13.png,./static/experiments/de2/materials/stim_files/13.png,2,no,,663,0,223,2
470,22,0,./static/experiments/de2/materials/stim_files/14.png,./static/experiments/de2/materials/stim_files/6.png,2,yes,,895,0,223,2
471,23,0,./static/experiments/de2/materials/stim_files/16.png,./static/experiments/de2/materials/stim_files/1.png,2,no,,1276,0,223,2
472,24,0,./static/experiments/de2/materials/stim_files/14.png,./static/experiments/de2/materials/stim_files/1.png,2,no,,709,0,223,2
473,25,0,./static/experiments/de2/materials/stim_files/15.png,./static/experiments/de2/materials/stim_files/4.png,2,yes,,926,0,223,2
474,26,0,./static/experiments/de2/materials/stim_files/7.png,./static/experiments/de2/materials/stim_files/16.png,2,no,,501,0,223,2
475,27,0,./static/experiments/de2/materials/stim_files/14.png,./static/experiments/de2/materials/stim_files/9.png,2,no,,678,0,223,2
476,28,0,./static/experiments/de2/materials/stim_files/16.png,./static/experiments/de2/materials/stim_files/6.png,2,yes,,714,0,223,2
477,29,0,./static/experiments/de2/materials/stim_files/1.png,./static/experiments/de2/materials/stim_files/15.png,2,no,,561,0,223,2
478,30,0,./static/experiments/de2/materials/stim_files/3.png,./static/experiments/de2/materials/stim_files/16.png,2,no,,1214,0,223,2
479,31,0,./static/experiments/de2/materials/stim_files/12.png,./static/experiments/de2/materials/stim_files/15.png,2,no,,935,0,223,2
480,0,0,./static/experiments/de2/materials/stim_files/10.png,./static/experiments/de2/materials/stim_files/7.png,2,no,,5590,0,247,2
481,1,0,./static/experiments/de2/materials/stim_files/2.png,./static/experiments/de2/materials/stim_files/9.png,2,yes,,5678,0,247,2
482,2,0,./static/experiments/de2/materials/stim_files/5.png,./static/experiments/de2/materials/stim_files/1.png,2,yes,,7554,0,247,2
483,3,0,./static/experiments/de2/materials/stim_files/9.png,./static/experiments/de2/materials/stim_files/7.png,2,no,,1554,0,247,2
484,4,0,./static/experiments/de2/materials/stim_files/6.png,./static/experiments/de2/materials/stim_files/9.png,2,no,,1218,0,247,2
485,5,0,./static/experiments/de2/materials/stim_files/14.png,./static/experiments/de2/materials/stim_files/2.png,2,yes,,2382,0,247,2
486,6,0,./static/experiments/de2/materials/stim_files/1.png,./static/experiments/de2/materials/stim_files/15.png,2,yes,,1167,0,247,2
487,7,0,./static/experiments/de2/materials/stim_files/16.png,./static/experiments/de2/materials/stim_files/10.png,2,no,,1972,0,247,2
488,8,0,./static/experiments/de2/materials/stim_files/8.png,./static/experiments/de2/materials/stim_files/9.png,2,no,,909,0,247,2
489,9,0,./static/experiments/de2/materials/stim_files/14.png,./static/experiments/de2/materials/stim_files/7.png,2,no,,7554,0,247,2
490,10,0,./static/experiments/de2/materials/stim_files/16.png,./static/experiments/de2/materials/stim_files/16.png,2,no,,1235,0,247,2
491,11,0,./static/experiments/de2/materials/stim_files/2.png,./static/experiments/de2/materials/stim_files/15.png,2,yes,,1012,0,247,2
492,12,0,./static/experiments/de2/materials/stim_files/5.png,./static/experiments/de2/materials/stim_files/15.png,2,yes,,1226,0,247,2
493,13,0,./static/experiments/de2/materials/stim_files/1.png,./static/experiments/de2/materials/stim_files/15.png,2,yes,,916,0,247,2
494,14,0,./static/experiments/de2/materials/stim_files/1.png,./static/experiments/de2/materials/stim_files/16.png,2,yes,,1036,0,247,2
495,15,0,./static/experiments/de2/materials/stim_files/1.png,./static/experiments/de2/materials/stim_files/11.png,2,yes,,2675,0,247,2
496,16,0,./static/experiments/de2/materials/stim_files/10.png,./static/experiments/de2/materials/stim_files/2.png,2,yes,,1434,0,247,2
497,17,0,./static/experiments/de2/materials/stim_files/1.png,./static/experiments/de2/materials/stim_files/16.png,2,yes,,3152,0,247,2
498,18,0,./static/experiments/de2/materials/stim_files/4.png,./static/experiments/de2/materials/stim_files/15.png,2,yes,,1028,0,247,2
499,19,0,./static/experiments/de2/materials/stim_files/4.png,./static/experiments/de2/materials/stim_files/9.png,2,no,,1118,0,247,2
500,20,0,./static/experiments/de2/materials/stim_files/12.png,./static/experiments/de2/materials/stim_files/16.png,2,no,,3150,0,247,2
501,21,0,./static/experiments/de2/materials/stim_files/2.png,./static/experiments/de2/materials/stim_files/1.png,2,no,,2083,0,247,2
502,22,0,./static/experiments/de2/materials/stim_files/2.png,./static/experiments/de2/materials/stim_files/13.png,2,yes,,1373,0,247,2
503,23,0,./static/experiments/de2/materials/stim_files/13.png,./static/experiments/de2/materials/stim_files/1.png,2,no,,2156,0,247,2
504,24,0,./static/experiments/de2/materials/stim_files/5.png,./static/experiments/de2/materials/stim_files/5.png,2,no,,1678,0,247,2
505,25,0,./static/experiments/de2/materials/stim_files/5.png,./static/experiments/de2/materials/stim_files/14.png,2,no,,2219,0,247,2
506,26,0,./static/experiments/de2/materials/stim_files/3.png,./static/experiments/de2/materials/stim_files/16.png,2,yes,,1255,0,247,2
507,27,0,./static/experiments/de2/materials/stim_files/15.png,./static/experiments/de2/materials/stim_files/10.png,2,no,,1134,0,247,2
508,28,0,./static/experiments/de2/materials/stim_files/10.png,./static/experiments/de2/materials/stim_files/1.png,2,yes,,1059,0,247,2
509,29,0,./static/experiments/de2/materials/stim_files/16.png,./static/experiments/de2/materials/stim_files/14.png,2,no,,840,0,247,2
510,30,0,./static/experiments/de2/materials/stim_files/11.png,./static/experiments/de2/materials/stim_files/5.png,2,no,,1214,0,247,2
511,31,0,./static/experiments/de2/materials/stim_files/12.png,./static/experiments/de2/materials/stim_files/4.png,2,yes,,1654,0,247,2
512,0,0,./static/experiments/de2/materials/stim_files/3.png,./static/experiments/de2/materials/stim_files/11.png,2,no,,3373,1,122,3
513,1,0,./static/experiments/de2/materials/stim_files/6.png,./static/experiments/de2/materials/stim_files/6.png,2,no,,1996,1,122,3
514,2,0,./static/experiments/de2/materials/stim_files/7.png,./static/experiments/de2/materials/stim_files/10.png,2,no,,2004,1,122,3
515,3,0,./static/experiments/de2/materials/stim_files/1.png,./static/experiments/de2/materials/stim_files/14.png,2,no,,1549,1,122,3
516,4,0,./static/experiments/de2/materials/stim_files/14.png,./static/experiments/de2/materials/stim_files/12.png,2,yes,,2103,1,122,3
517,5,0,./static/experiments/de2/materials/stim_files/5.png,./static/experiments/de2/materials/stim_files/10.png,2,no,,1565,1,122,3
518,6,0,./static/experiments/de2/materials/stim_files/15.png,./static/experiments/de2/materials/stim_files/1.png,2,no,,1334,1,122,3
519,7,0,./static/experiments/de2/materials/stim_files/2.png,./static/experiments/de2/materials/stim_files/1.png,2,yes,,4182,1,122,3
520,8,0,./static/experiments/de2/materials/stim_files/10.png,./static/experiments/de2/materials/stim_files/10.png,2,no,,1929,1,122,3
521,9,0,./static/experiments/de2/materials/stim_files/9.png,./static/experiments/de2/materials/stim_files/16.png,2,no,,1466,1,122,3
522,10,0,./static/experiments/de2/materials/stim_files/12.png,./static/experiments/de2/materials/stim_files/13.png,2,yes,,1581,1,122,3
523,11,0,./static/experiments/de2/materials/stim_files/12.png,./static/experiments/de2/materials/stim_files/5.png,2,no,,1284,1,122,3
524,12,0,./static/experiments/de2/materials/stim_files/11.png,./static/experiments/de2/materials/stim_files/8.png,2,no,,2823,1,122,3
525,13,0,./static/experiments/de2/materials/stim_files/12.png,./static/experiments/de2/materials/stim_files/8.png,2,no,,1295,1,122,3
526,14,0,./static/experiments/de2/materials/stim_files/15.png,./static/experiments/de2/materials/stim_files/3.png,2,no,,1237,1,122,3
527,15,0,./static/experiments/de2/materials/stim_files/3.png,./static/experiments/de2/materials/stim_files/14.png,2,no,,778,1,122,3
528,16,0,./static/experiments/de2/materials/stim_files/16.png,./static/experiments/de2/materials/stim_files/14.png,2,yes,,1862,1,122,3
529,17,0,./static/experiments/de2/materials/stim_files/3.png,./static/experiments/de2/materials/stim_files/16.png,2,no,,1201,1,122,3
530,18,0,./static/experiments/de2/materials/stim_files/5.png,./static/experiments/de2/materials/stim_files/16.png,2,no,,1147,1,122,3
531,19,0,./static/experiments/de2/materials/stim_files/8.png,./static/experiments/de2/materials/stim_files/2.png,2,no,,1175,1,122,3
532,20,0,./static/experiments/de2/materials/stim_files/8.png,./static/experiments/de2/materials/stim_files/4.png,2,no,,908,1,122,3
533,21,0,./static/experiments/de2/materials/stim_files/1.png,./static/experiments/de2/materials/stim_files/16.png,2,no,,1598,1,122,3
534,22,0,./static/experiments/de2/materials/stim_files/16.png,./static/experiments/de2/materials/stim_files/1.png,2,no,,1718,1,122,3
535,23,0,./static/experiments/de2/materials/stim_files/2.png,./static/experiments/de2/materials/stim_files/16.png,2,no,,2100,1,122,3
536,24,0,./static/experiments/de2/materials/stim_files/4.png,./static/experiments/de2/materials/stim_files/13.png,2,no,,3567,1,122,3
537,25,0,./static/experiments/de2/materials/stim_files/15.png,./static/experiments/de2/materials/stim_files/3.png,2,no,,2536,1,122,3
538,26,0,./static/experiments/de2/materials/stim_files/6.png,./static/experiments/de2/materials/stim_files/16.png,2,no,,1220,1,122,3
539,27,0,./static/experiments/de2/materials/stim_files/12.png,./static/experiments/de2/materials/stim_files/7.png,2,no,,2754,1,122,3
540,28,0,./static/experiments/de2/materials/stim_files/8.png,./static/experiments/de2/materials/stim_files/16.png,2,no,,1286,1,122,3
541,29,0,./static/experiments/de2/materials/stim_files/16.png,./static/experiments/de2/materials/stim_files/10.png,2,yes,,1950,1,122,3
542,30,0,./static/experiments/de2/materials/stim_files/3.png,./static/experiments/de2/materials/stim_files/13.png,2,yes,,2279,1,122,3
543,31,0,./static/experiments/de2/materials/stim_files/10.png,./static/experiments/de2/materials/stim_files/1.png,2,no,,797,1,122,3
544,0,0,./static/experiments/de2/materials/stim_files/15.png,./static/experiments/de2/materials/stim_files/2.png,2,yes,,4889,1,210,2
545,1,0,./static/experiments/de2/materials/stim_files/12.png,./static/experiments/de2/materials/stim_files/16.png,2,no,,1744,1,210,2
546,2,0,./static/experiments/de2/materials/stim_files/11.png,./static/experiments/de2/materials/stim_files/6.png,2,no,,2940,1,210,2
547,3,0,./static/experiments/de2/materials/stim_files/16.png,./static/experiments/de2/materials/stim_files/1.png,2,yes,,1893,1,210,2
548,4,0,./static/experiments/de2/materials/stim_files/4.png,./static/experiments/de2/materials/stim_files/7.png,2,no,,2028,1,210,2
549,5,0,./static/experiments/de2/materials/stim_files/14.png,./static/experiments/de2/materials/stim_files/14.png,2,no,,1987,1,210,2
550,6,0,./static/experiments/de2/materials/stim_files/8.png,./static/experiments/de2/materials/stim_files/2.png,2,yes,,1705,1,210,2
551,7,0,./static/experiments/de2/materials/stim_files/3.png,./static/experiments/de2/materials/stim_files/11.png,2,yes,,2579,1,210,2
552,8,0,./static/experiments/de2/materials/stim_files/4.png,./static/experiments/de2/materials/stim_files/13.png,2,yes,,977,1,210,2
553,9,0,./static/experiments/de2/materials/stim_files/5.png,./static/experiments/de2/materials/stim_files/4.png,2,no,,1235,1,210,2
554,10,0,./static/experiments/de2/materials/stim_files/2.png,./static/experiments/de2/materials/stim_files/9.png,2,yes,,1366,1,210,2
555,11,0,./static/experiments/de2/materials/stim_files/1.png,./static/experiments/de2/materials/stim_files/13.png,2,yes,,1260,1,210,2
556,12,0,./static/experiments/de2/materials/stim_files/15.png,./static/experiments/de2/materials/stim_files/10.png,2,no,,1785,1,210,2
557,13,0,./static/experiments/de2/materials/stim_files/15.png,./static/experiments/de2/materials/stim_files/3.png,2,yes,,1404,1,210,2
558,14,0,./static/experiments/de2/materials/stim_files/1.png,./static/experiments/de2/materials/stim_files/16.png,2,yes,,1082,1,210,2
559,15,0,./static/experiments/de2/materials/stim_files/7.png,./static/experiments/de2/materials/stim_files/9.png,2,no,,986,1,210,2
560,16,0,./static/experiments/de2/materials/stim_files/9.png,./static/experiments/de2/materials/stim_files/2.png,2,yes,,1346,1,210,2
561,17,0,./static/experiments/de2/materials/stim_files/9.png,./static/experiments/de2/materials/stim_files/11.png,2,no,,961,1,210,2
562,18,0,./static/experiments/de2/materials/stim_files/16.png,./static/experiments/de2/materials/stim_files/5.png,2,yes,,1116,1,210,2
563,19,0,./static/experiments/de2/materials/stim_files/6.png,./static/experiments/de2/materials/stim_files/16.png,2,yes,,1130,1,210,2
564,20,0,./static/experiments/de2/materials/stim_files/5.png,./static/experiments/de2/materials/stim_files/1.png,2,no,,1852,1,210,2
565,21,0,./static/experiments/de2/materials/stim_files/13.png,./static/experiments/de2/materials/stim_files/12.png,2,no,,1332,1,210,2
566,22,0,./static/experiments/de2/materials/stim_files/10.png,./static/experiments/de2/materials/stim_files/1.png,2,yes,,1387,1,210,2
567,23,0,./static/experiments/de2/materials/stim_files/7.png,./static/experiments/de2/materials/stim_files/7.png,2,no,,1018,1,210,2
568,24,0,./static/experiments/de2/materials/stim_files/1.png,./static/experiments/de2/materials/stim_files/9.png,2,yes,,967,1,210,2
569,25,0,./static/experiments/de2/materials/stim_files/3.png,./static/experiments/de2/materials/stim_files/9.png,2,yes,,784,1,210,2
570,26,0,./static/experiments/de2/materials/stim_files/2.png,./static/experiments/de2/materials/stim_files/16.png,2,yes,,1074,1,210,2
571,27,0,./static/experiments/de2/materials/stim_files/15.png,./static/experiments/de2/materials/stim_files/1.png,2,yes,,1101,1,210,2
572,28,0,./static/experiments/de2/materials/stim_files/14.png,./static/experiments/de2/materials/stim_files/4.png,2,yes,,896,1,210,2
573,29,0,./static/experiments/de2/materials/stim_files/3.png,./static/experiments/de2/materials/stim_files/16.png,2,yes,,847,1,210,2
574,30,0,./static/experiments/de2/materials/stim_files/6.png,./static/experiments/de2/materials/stim_files/3.png,2,no,,1380,1,210,2
575,31,0,./static/experiments/de2/materials/stim_files/4.png,./static/experiments/de2/materials/stim_files/15.png,2,yes,,898,1,210,2
576,0,0,./static/experiments/de2/materials/stim_files/16.png,./static/experiments/de2/materials/stim_files/1.png,2,no,,10318,1,225,1
577,1,0,./static/experiments/de2/materials/stim_files/13.png,./static/experiments/de2/materials/stim_files/3.png,2,no,,3210,1,225,1
578,2,0,./static/experiments/de2/materials/stim_files/3.png,./static/experiments/de2/materials/stim_files/11.png,2,no,,1073,1,225,1
579,3,0,./static/experiments/de2/materials/stim_files/14.png,./static/experiments/de2/materials/stim_files/2.png,2,no,,742,1,225,1
580,4,0,./static/experiments/de2/materials/stim_files/8.png,./static/experiments/de2/materials/stim_files/12.png,2,yes,,1147,1,225,1
581,5,0,./static/experiments/de2/materials/stim_files/12.png,./static/experiments/de2/materials/stim_files/4.png,2,no,,773,1,225,1
582,6,0,./static/experiments/de2/materials/stim_files/13.png,./static/experiments/de2/materials/stim_files/3.png,2,no,,1021,1,225,1
583,7,0,./static/experiments/de2/materials/stim_files/4.png,./static/experiments/de2/materials/stim_files/9.png,2,yes,,2259,1,225,1
584,8,0,./static/experiments/de2/materials/stim_files/12.png,./static/experiments/de2/materials/stim_files/9.png,2,yes,,830,1,225,1
585,9,0,./static/experiments/de2/materials/stim_files/12.png,./static/experiments/de2/materials/stim_files/1.png,2,no,,957,1,225,1
586,10,0,./static/experiments/de2/materials/stim_files/15.png,./static/experiments/de2/materials/stim_files/8.png,2,yes,,2493,1,225,1
587,11,0,./static/experiments/de2/materials/stim_files/1.png,./static/experiments/de2/materials/stim_files/15.png,2,no,,915,1,225,1
588,12,0,./static/experiments/de2/materials/stim_files/6.png,./static/experiments/de2/materials/stim_files/3.png,2,yes,,1331,1,225,1
589,13,0,./static/experiments/de2/materials/stim_files/2.png,./static/experiments/de2/materials/stim_files/15.png,2,no,,570,1,225,1
590,14,0,./static/experiments/de2/materials/stim_files/3.png,./static/experiments/de2/materials/stim_files/1.png,2,yes,,791,1,225,1
591,15,0,./static/experiments/de2/materials/stim_files/16.png,./static/experiments/de2/materials/stim_files/2.png,2,no,,20880,1,225,1
592,16,0,./static/experiments/de2/materials/stim_files/15.png,./static/experiments/de2/materials/stim_files/9.png,2,yes,,1245,1,225,1
593,17,0,./static/experiments/de2/materials/stim_files/15.png,./static/experiments/de2/materials/stim_files/6.png,2,no,,749,1,225,1
594,18,0,./static/experiments/de2/materials/stim_files/8.png,./static/experiments/de2/materials/stim_files/9.png,2,yes,,682,1,225,1
595,19,0,./static/experiments/de2/materials/stim_files/3.png,./static/experiments/de2/materials/stim_files/15.png,2,no,,571,1,225,1
596,20,0,./static/experiments/de2/materials/stim_files/1.png,./static/experiments/de2/materials/stim_files/16.png,2,no,,581,1,225,1
597,21,0,./static/experiments/de2/materials/stim_files/1.png,./static/experiments/de2/materials/stim_files/6.png,2,no,,418,1,225,1
598,22,0,./static/experiments/de2/materials/stim_files/2.png,./static/experiments/de2/materials/stim_files/9.png,2,no,,724,1,225,1
599,23,0,./static/experiments/de2/materials/stim_files/11.png,./static/experiments/de2/materials/stim_files/2.png,2,no,,985,1,225,1
600,24,0,./static/experiments/de2/materials/stim_files/14.png,./static/experiments/de2/materials/stim_files/14.png,2,yes,,447,1,225,1
601,25,0,./static/experiments/de2/materials/stim_files/15.png,./static/experiments/de2/materials/stim_files/2.png,2,no,,579,1,225,1
602,26,0,./static/experiments/de2/materials/stim_files/12.png,./static/experiments/de2/materials/stim_files/6.png,2,no,,1711,1,225,1
603,27,0,./static/experiments/de2/materials/stim_files/6.png,./static/experiments/de2/materials/stim_files/6.png,2,yes,,1841,1,225,1
604,28,0,./static/experiments/de2/materials/stim_files/9.png,./static/experiments/de2/materials/stim_files/10.png,2,yes,,623,1,225,1
605,29,0,./static/experiments/de2/materials/stim_files/6.png,./static/experiments/de2/materials/stim_files/10.png,2,yes,,1186,1,225,1
606,30,0,./static/experiments/de2/materials/stim_files/4.png,./static/experiments/de2/materials/stim_files/15.png,2,no,,824,1,225,1
607,31,0,./static/experiments/de2/materials/stim_files/3.png,./static/experiments/de2/materials/stim_files/5.png,2,no,,898,1,225,1
608,0,0,./static/experiments/de2/materials/stim_files/6.png,./static/experiments/de2/materials/stim_files/1.png,2,no,,3704,1,115,3
609,1,0,./static/experiments/de2/materials/stim_files/1.png,./static/experiments/de2/materials/stim_files/1.png,2,yes,,2212,1,115,3
610,2,0,./static/experiments/de2/materials/stim_files/12.png,./static/experiments/de2/materials/stim_files/2.png,2,no,,1637,1,115,3
611,3,0,./static/experiments/de2/materials/stim_files/5.png,./static/experiments/de2/materials/stim_files/1.png,2,no,,1797,1,115,3
612,4,0,./static/experiments/de2/materials/stim_files/11.png,./static/experiments/de2/materials/stim_files/3.png,2,no,,1193,1,115,3
613,5,0,./static/experiments/de2/materials/stim_files/15.png,./static/experiments/de2/materials/stim_files/12.png,2,yes,,1250,1,115,3
614,6,0,./static/experiments/de2/materials/stim_files/1.png,./static/experiments/de2/materials/stim_files/16.png,2,no,,2006,1,115,3
615,7,0,./static/experiments/de2/materials/stim_files/3.png,./static/experiments/de2/materials/stim_files/5.png,2,yes,,2247,1,115,3
616,8,0,./static/experiments/de2/materials/stim_files/14.png,./static/experiments/de2/materials/stim_files/1.png,2,no,,2198,1,115,3
617,9,0,./static/experiments/de2/materials/stim_files/7.png,./static/experiments/de2/materials/stim_files/16.png,2,no,,1405,1,115,3
618,10,0,./static/experiments/de2/materials/stim_files/1.png,./static/experiments/de2/materials/stim_files/12.png,2,no,,1106,1,115,3
619,11,0,./static/experiments/de2/materials/stim_files/11.png,./static/experiments/de2/materials/stim_files/15.png,2,yes,,1329,1,115,3
620,12,0,./static/experiments/de2/materials/stim_files/11.png,./static/experiments/de2/materials/stim_files/4.png,2,no,,1355,1,115,3
621,13,0,./static/experiments/de2/materials/stim_files/15.png,./static/experiments/de2/materials/stim_files/1.png,2,no,,1017,1,115,3
622,14,0,./static/experiments/de2/materials/stim_files/2.png,./static/experiments/de2/materials/stim_files/16.png,2,no,,958,1,115,3
623,15,0,./static/experiments/de2/materials/stim_files/10.png,./static/experiments/de2/materials/stim_files/10.png,2,yes,,1388,1,115,3
624,16,0,./static/experiments/de2/materials/stim_files/1.png,./static/experiments/de2/materials/stim_files/2.png,2,yes,,2940,1,115,3
625,17,0,./static/experiments/de2/materials/stim_files/2.png,./static/experiments/de2/materials/stim_files/8.png,2,no,,1093,1,115,3
626,18,0,./static/experiments/de2/materials/stim_files/1.png,./static/experiments/de2/materials/stim_files/11.png,2,no,,1365,1,115,3
627,19,0,./static/experiments/de2/materials/stim_files/8.png,./static/experiments/de2/materials/stim_files/15.png,2,no,,1283,1,115,3
628,20,0,./static/experiments/de2/materials/stim_files/9.png,./static/experiments/de2/materials/stim_files/1.png,2,no,,2623,1,115,3
629,21,0,./static/experiments/de2/materials/stim_files/3.png,./static/experiments/de2/materials/stim_files/16.png,2,no,,1688,1,115,3
630,22,0,./static/experiments/de2/materials/stim_files/14.png,./static/experiments/de2/materials/stim_files/3.png,2,no,,742,1,115,3
631,23,0,./static/experiments/de2/materials/stim_files/4.png,./static/experiments/de2/materials/stim_files/10.png,2,no,,1321,1,115,3
632,24,0,./static/experiments/de2/materials/stim_files/3.png,./static/experiments/de2/materials/stim_files/15.png,2,no,,643,1,115,3
633,25,0,./static/experiments/de2/materials/stim_files/6.png,./static/experiments/de2/materials/stim_files/4.png,2,yes,,909,1,115,3
634,26,0,./static/experiments/de2/materials/stim_files/4.png,./static/experiments/de2/materials/stim_files/7.png,2,yes,,625,1,115,3
635,27,0,./static/experiments/de2/materials/stim_files/4.png,./static/experiments/de2/materials/stim_files/3.png,2,yes,,854,1,115,3
636,28,0,./static/experiments/de2/materials/stim_files/4.png,./static/experiments/de2/materials/stim_files/13.png,2,no,,825,1,115,3
637,29,0,./static/experiments/de2/materials/stim_files/15.png,./static/experiments/de2/materials/stim_files/10.png,2,no,,1099,1,115,3
638,30,0,./static/experiments/de2/materials/stim_files/1.png,./static/experiments/de2/materials/stim_files/13.png,2,no,,984,1,115,3
639,31,0,./static/experiments/de2/materials/stim_files/1.png,./static/experiments/de2/materials/stim_files/16.png,2,no,,496,1,115,3
640,0,0,./static/experiments/de2/materials/stim_files/11.png,./static/experiments/de2/materials/stim_files/4.png,2,yes,,6730,0,172,1
641,1,0,./static/experiments/de2/materials/stim_files/11.png,./static/experiments/de2/materials/stim_files/15.png,2,no,,3513,0,172,1
642,2,0,./static/experiments/de2/materials/stim_files/10.png,./static/experiments/de2/materials/stim_files/2.png,2,yes,,1819,0,172,1
643,3,0,./static/experiments/de2/materials/stim_files/9.png,./static/experiments/de2/materials/stim_files/9.png,2,no,,1260,0,172,1
644,4,0,./static/experiments/de2/materials/stim_files/15.png,./static/experiments/de2/materials/stim_files/8.png,2,yes,,615,0,172,1
645,5,0,./static/experiments/de2/materials/stim_files/11.png,./static/experiments/de2/materials/stim_files/1.png,2,yes,,599,0,172,1
646,6,0,./static/experiments/de2/materials/stim_files/15.png,./static/experiments/de2/materials/stim_files/2.png,2,yes,,1143,0,172,1
647,7,0,./static/experiments/de2/materials/stim_files/11.png,./static/experiments/de2/materials/stim_files/3.png,2,yes,,548,0,172,1
648,8,0,./static/experiments/de2/materials/stim_files/2.png,./static/experiments/de2/materials/stim_files/16.png,2,yes,,671,0,172,1
649,9,0,./static/experiments/de2/materials/stim_files/8.png,./static/experiments/de2/materials/stim_files/13.png,2,no,,1862,0,172,1
650,10,0,./static/experiments/de2/materials/stim_files/8.png,./static/experiments/de2/materials/stim_files/10.png,2,no,,697,0,172,1
651,11,0,./static/experiments/de2/materials/stim_files/1.png,./static/experiments/de2/materials/stim_files/12.png,2,yes,,458,0,172,1
652,12,0,./static/experiments/de2/materials/stim_files/11.png,./static/experiments/de2/materials/stim_files/2.png,2,yes,,705,0,172,1
653,13,0,./static/experiments/de2/materials/stim_files/16.png,./static/experiments/de2/materials/stim_files/6.png,2,yes,,741,0,172,1
654,14,0,./static/experiments/de2/materials/stim_files/1.png,./static/experiments/de2/materials/stim_files/16.png,2,yes,,591,0,172,1
655,15,0,./static/experiments/de2/materials/stim_files/5.png,./static/experiments/de2/materials/stim_files/11.png,2,yes,,427,0,172,1
656,16,0,./static/experiments/de2/materials/stim_files/7.png,./static/experiments/de2/materials/stim_files/12.png,2,no,,772,0,172,1
657,17,0,./static/experiments/de2/materials/stim_files/14.png,./static/experiments/de2/materials/stim_files/2.png,2,yes,,471,0,172,1
658,18,0,./static/experiments/de2/materials/stim_files/6.png,./static/experiments/de2/materials/stim_files/6.png,2,no,,534,0,172,1
659,19,0,./static/experiments/de2/materials/stim_files/15.png,./static/experiments/de2/materials/stim_files/1.png,2,yes,,411,0,172,1
660,20,0,./static/experiments/de2/materials/stim_files/6.png,./static/experiments/de2/materials/stim_files/5.png,2,no,,468,0,172,1
661,21,0,./static/experiments/de2/materials/stim_files/15.png,./static/experiments/de2/materials/stim_files/6.png,2,yes,,470,0,172,1
662,22,0,./static/experiments/de2/materials/stim_files/7.png,./static/experiments/de2/materials/stim_files/10.png,2,no,,449,0,172,1
663,23,0,./static/experiments/de2/materials/stim_files/15.png,./static/experiments/de2/materials/stim_files/2.png,2,yes,,428,0,172,1
664,24,0,./static/experiments/de2/materials/stim_files/8.png,./static/experiments/de2/materials/stim_files/5.png,2,no,,657,0,172,1
665,25,0,./static/experiments/de2/materials/stim_files/16.png,./static/experiments/de2/materials/stim_files/1.png,2,yes,,406,0,172,1
666,26,0,./static/experiments/de2/materials/stim_files/4.png,./static/experiments/de2/materials/stim_files/15.png,2,yes,,449,0,172,1
667,27,0,./static/experiments/de2/materials/stim_files/4.png,./static/experiments/de2/materials/stim_files/2.png,2,no,,564,0,172,1
668,28,0,./static/experiments/de2/materials/stim_files/7.png,./static/experiments/de2/materials/stim_files/6.png,2,no,,525,0,172,1
669,29,0,./static/experiments/de2/materials/stim_files/10.png,./static/experiments/de2/materials/stim_files/6.png,2,yes,,624,0,172,1
670,30,0,./static/experiments/de2/materials/stim_files/1.png,./static/experiments/de2/materials/stim_files/13.png,2,yes,,545,0,172,1
671,31,0,./static/experiments/de2/materials/stim_files/3.png,./static/experiments/de2/materials/stim_files/9.png,2,yes,,456,0,172,1
672,0,0,./static/experiments/de2/materials/stim_files/4.png,./static/experiments/de2/materials/stim_files/16.png,2,no,,5662,0,95,3
673,1,0,./static/experiments/de2/materials/stim_files/12.png,./static/experiments/de2/materials/stim_files/5.png,2,no,,4106,0,95,3
674,2,0,./static/experiments/de2/materials/stim_files/13.png,./static/experiments/de2/materials/stim_files/3.png,2,no,,2483,0,95,3
675,3,0,./static/experiments/de2/materials/stim_files/10.png,./static/experiments/de2/materials/stim_files/5.png,2,no,,1844,0,95,3
676,4,0,./static/experiments/de2/materials/stim_files/2.png,./static/experiments/de2/materials/stim_files/12.png,2,no,,1962,0,95,3
677,5,0,./static/experiments/de2/materials/stim_files/4.png,./static/experiments/de2/materials/stim_files/12.png,2,no,,1731,0,95,3
678,6,0,./static/experiments/de2/materials/stim_files/14.png,./static/experiments/de2/materials/stim_files/1.png,2,no,,2839,0,95,3
679,7,0,./static/experiments/de2/materials/stim_files/5.png,./static/experiments/de2/materials/stim_files/5.png,2,no,,9815,0,95,3
680,8,0,./static/experiments/de2/materials/stim_files/16.png,./static/experiments/de2/materials/stim_files/5.png,2,no,,1049,0,95,3
681,9,0,./static/experiments/de2/materials/stim_files/2.png,./static/experiments/de2/materials/stim_files/2.png,2,no,,2362,0,95,3
682,10,0,./static/experiments/de2/materials/stim_files/12.png,./static/experiments/de2/materials/stim_files/6.png,2,no,,1606,0,95,3
683,11,0,./static/experiments/de2/materials/stim_files/4.png,./static/experiments/de2/materials/stim_files/16.png,2,no,,706,0,95,3
684,12,0,./static/experiments/de2/materials/stim_files/2.png,./static/experiments/de2/materials/stim_files/16.png,2,no,,1156,0,95,3
685,13,0,./static/experiments/de2/materials/stim_files/10.png,./static/experiments/de2/materials/stim_files/14.png,2,no,,1721,0,95,3
686,14,0,./static/experiments/de2/materials/stim_files/10.png,./static/experiments/de2/materials/stim_files/2.png,2,no,,976,0,95,3
687,15,0,./static/experiments/de2/materials/stim_files/16.png,./static/experiments/de2/materials/stim_files/1.png,2,no,,874,0,95,3
688,16,0,./static/experiments/de2/materials/stim_files/3.png,./static/experiments/de2/materials/stim_files/6.png,2,no,,7198,0,95,3
689,17,0,./static/experiments/de2/materials/stim_files/5.png,./static/experiments/de2/materials/stim_files/11.png,2,no,,2940,0,95,3
690,18,0,./static/experiments/de2/materials/stim_files/8.png,./static/experiments/de2/materials/stim_files/11.png,2,yes,,3230,0,95,3
691,19,0,./static/experiments/de2/materials/stim_files/2.png,./static/experiments/de2/materials/stim_files/13.png,2,no,,1122,0,95,3
692,20,0,./static/experiments/de2/materials/stim_files/15.png,./static/experiments/de2/materials/stim_files/1.png,2,no,,957,0,95,3
693,21,0,./static/experiments/de2/materials/stim_files/14.png,./static/experiments/de2/materials/stim_files/5.png,2,no,,1329,0,95,3
694,22,0,./static/experiments/de2/materials/stim_files/13.png,./static/experiments/de2/materials/stim_files/11.png,2,yes,,1132,0,95,3
695,23,0,./static/experiments/de2/materials/stim_files/14.png,./static/experiments/de2/materials/stim_files/5.png,2,no,,1427,0,95,3
696,24,0,./static/experiments/de2/materials/stim_files/1.png,./static/experiments/de2/materials/stim_files/16.png,2,no,,966,0,95,3
697,25,0,./static/experiments/de2/materials/stim_files/1.png,./static/experiments/de2/materials/stim_files/3.png,2,yes,,3731,0,95,3
698,26,0,./static/experiments/de2/materials/stim_files/3.png,./static/experiments/de2/materials/stim_files/2.png,2,yes,,1099,0,95,3
699,27,0,./static/experiments/de2/materials/stim_files/14.png,./static/experiments/de2/materials/stim_files/7.png,2,no,,1195,0,95,3
700,28,0,./static/experiments/de2/materials/stim_files/4.png,./static/experiments/de2/materials/stim_files/9.png,2,no,,848,0,95,3
701,29,0,./static/experiments/de2/materials/stim_files/9.png,./static/experiments/de2/materials/stim_files/5.png,2,no,,1591,0,95,3
702,30,0,./static/experiments/de2/materials/stim_files/2.png,./static/experiments/de2/materials/stim_files/15.png,2,no,,774,0,95,3
703,31,0,./static/experiments/de2/materials/stim_files/15.png,./static/experiments/de2/materials/stim_files/14.png,2,yes,,964,0,95,3
704,0,0,./static/experiments/de2/materials/stim_files/10.png,./static/experiments/de2/materials/stim_files/3.png,2,yes,,19853,0,141,1
705,1,0,./static/experiments/de2/materials/stim_files/12.png,./static/experiments/de2/materials/stim_files/1.png,2,yes,,5294,0,141,1
706,2,0,./static/experiments/de2/materials/stim_files/1.png,./static/experiments/de2/materials/stim_files/15.png,2,yes,,788,0,141,1
707,3,0,./static/experiments/de2/materials/stim_files/1.png,./static/experiments/de2/materials/stim_files/12.png,2,yes,,576,0,141,1
708,4,0,./static/experiments/de2/materials/stim_files/16.png,./static/experiments/de2/materials/stim_files/6.png,2,yes,,633,0,141,1
709,5,0,./static/experiments/de2/materials/stim_files/15.png,./static/experiments/de2/materials/stim_files/2.png,2,yes,,442,0,141,1
710,6,0,./static/experiments/de2/materials/stim_files/6.png,./static/experiments/de2/materials/stim_files/10.png,2,yes,,2155,0,141,1
711,7,0,./static/experiments/de2/materials/stim_files/2.png,./static/experiments/de2/materials/stim_files/8.png,2,yes,,1980,0,141,1
712,8,0,./static/experiments/de2/materials/stim_files/16.png,./static/experiments/de2/materials/stim_files/4.png,2,yes,,565,0,141,1
713,9,0,./static/experiments/de2/materials/stim_files/14.png,./static/experiments/de2/materials/stim_files/6.png,2,yes,,549,0,141,1
714,10,0,./static/experiments/de2/materials/stim_files/11.png,./static/experiments/de2/materials/stim_files/13.png,2,no,,570,0,141,1
715,11,0,./static/experiments/de2/materials/stim_files/2.png,./static/experiments/de2/materials/stim_files/11.png,2,yes,,2634,0,141,1
716,12,0,./static/experiments/de2/materials/stim_files/1.png,./static/experiments/de2/materials/stim_files/16.png,2,yes,,506,0,141,1
717,13,0,./static/experiments/de2/materials/stim_files/14.png,./static/experiments/de2/materials/stim_files/15.png,2,no,,615,0,141,1
718,14,0,./static/experiments/de2/materials/stim_files/7.png,./static/experiments/de2/materials/stim_files/2.png,2,yes,,794,0,141,1
719,15,0,./static/experiments/de2/materials/stim_files/2.png,./static/experiments/de2/materials/stim_files/14.png,2,yes,,914,0,141,1
720,16,0,./static/experiments/de2/materials/stim_files/8.png,./static/experiments/de2/materials/stim_files/6.png,2,no,,663,0,141,1
721,17,0,./static/experiments/de2/materials/stim_files/15.png,./static/experiments/de2/materials/stim_files/1.png,2,yes,,622,0,141,1
722,18,0,./static/experiments/de2/materials/stim_files/5.png,./static/experiments/de2/materials/stim_files/2.png,2,yes,,1296,0,141,1
723,19,0,./static/experiments/de2/materials/stim_files/8.png,./static/experiments/de2/materials/stim_files/8.png,2,no,,580,0,141,1
724,20,0,./static/experiments/de2/materials/stim_files/6.png,./static/experiments/de2/materials/stim_files/14.png,2,yes,,1069,0,141,1
725,21,0,./static/experiments/de2/materials/stim_files/4.png,./static/experiments/de2/materials/stim_files/5.png,2,no,,746,0,141,1
726,22,0,./static/experiments/de2/materials/stim_files/9.png,./static/experiments/de2/materials/stim_files/9.png,2,yes,,533,0,141,1
727,23,0,./static/experiments/de2/materials/stim_files/16.png,./static/experiments/de2/materials/stim_files/6.png,2,no,,578,0,141,1
728,24,0,./static/experiments/de2/materials/stim_files/16.png,./static/experiments/de2/materials/stim_files/1.png,2,yes,,1999,0,141,1
729,25,0,./static/experiments/de2/materials/stim_files/3.png,./static/experiments/de2/materials/stim_files/10.png,2,yes,,1271,0,141,1
730,26,0,./static/experiments/de2/materials/stim_files/12.png,./static/experiments/de2/materials/stim_files/7.png,2,yes,,1133,0,141,1
731,27,0,./static/experiments/de2/materials/stim_files/5.png,./static/experiments/de2/materials/stim_files/1.png,2,yes,,868,0,141,1
732,28,0,./static/experiments/de2/materials/stim_files/5.png,./static/experiments/de2/materials/stim_files/14.png,2,yes,,594,0,141,1
733,29,0,./static/experiments/de2/materials/stim_files/16.png,./static/experiments/de2/materials/stim_files/13.png,2,no,,708,0,141,1
734,30,0,./static/experiments/de2/materials/stim_files/15.png,./static/experiments/de2/materials/stim_files/2.png,2,yes,,665,0,141,1
735,31,0,./static/experiments/de2/materials/stim_files/13.png,./static/experiments/de2/materials/stim_files/7.png,2,yes,,1105,0,141,1
736,0,0,./static/experiments/de2/materials/stim_files/1.png,./static/experiments/de2/materials/stim_files/13.png,2,no,,9149,0,188,3
737,1,0,./static/experiments/de2/materials/stim_files/15.png,./static/experiments/de2/materials/stim_files/10.png,2,yes,,5074,0,188,3
738,2,0,./static/experiments/de2/materials/stim_files/6.png,./static/experiments/de2/materials/stim_files/4.png,2,yes,,2684,0,188,3
739,3,0,./static/experiments/de2/materials/stim_files/15.png,./static/experiments/de2/materials/stim_files/1.png,2,yes,,29600,0,188,3
740,4,0,./static/experiments/de2/materials/stim_files/8.png,./static/experiments/de2/materials/stim_files/2.png,2,no,,5564,0,188,3
741,5,0,./static/experiments/de2/materials/stim_files/16.png,./static/experiments/de2/materials/stim_files/1.png,2,no,,1761,0,188,3
742,6,0,./static/experiments/de2/materials/stim_files/8.png,./static/experiments/de2/materials/stim_files/16.png,2,yes,,1411,0,188,3
743,7,0,./static/experiments/de2/materials/stim_files/4.png,./static/experiments/de2/materials/stim_files/4.png,2,yes,,1803,0,188,3
744,8,0,./static/experiments/de2/materials/stim_files/1.png,./static/experiments/de2/materials/stim_files/16.png,2,no,,2115,0,188,3
745,9,0,./static/experiments/de2/materials/stim_files/3.png,./static/experiments/de2/materials/stim_files/1.png,2,yes,,1704,0,188,3
746,10,0,./static/experiments/de2/materials/stim_files/1.png,./static/experiments/de2/materials/stim_files/14.png,2,no,,1605,0,188,3
747,11,0,./static/experiments/de2/materials/stim_files/12.png,./static/experiments/de2/materials/stim_files/2.png,2,no,,2037,0,188,3
748,12,0,./static/experiments/de2/materials/stim_files/13.png,./static/experiments/de2/materials/stim_files/2.png,2,no,,848,0,188,3
749,13,0,./static/experiments/de2/materials/stim_files/6.png,./static/experiments/de2/materials/stim_files/6.png,2,no,,1752,0,188,3
750,14,0,./static/experiments/de2/materials/stim_files/7.png,./static/experiments/de2/materials/stim_files/16.png,2,yes,,1128,0,188,3
751,15,0,./static/experiments/de2/materials/stim_files/1.png,./static/experiments/de2/materials/stim_files/13.png,2,no,,1261,0,188,3
752,16,0,./static/experiments/de2/materials/stim_files/3.png,./static/experiments/de2/materials/stim_files/16.png,2,no,,980,0,188,3
753,17,0,./static/experiments/de2/materials/stim_files/5.png,./static/experiments/de2/materials/stim_files/4.png,2,yes,,1379,0,188,3
754,18,0,./static/experiments/de2/materials/stim_files/1.png,./static/experiments/de2/materials/stim_files/15.png,2,no,,1377,0,188,3
