,trial,block,s1,s2,connected,response,accuracy,rt,counter,id,condition
0,0,0,./static/experiments/de2/materials/stim_files/3.png,./static/experiments/de2/materials/stim_files/11.png,1,yes,0,6066,1.0,42,1
1,1,0,./static/experiments/de2/materials/stim_files/15.png,./static/experiments/de2/materials/stim_files/7.png,1,no,1,3642,1.0,42,1
2,2,0,./static/experiments/de2/materials/stim_files/13.png,./static/experiments/de2/materials/stim_files/5.png,1,no,1,1805,1.0,42,1
3,3,0,./static/experiments/de2/materials/stim_files/12.png,./static/experiments/de2/materials/stim_files/11.png,0,yes,1,2465,1.0,42,1
4,4,0,./static/experiments/de2/materials/stim_files/9.png,./static/experiments/de2/materials/stim_files/1.png,1,no,1,1069,1.0,42,1
5,5,0,./static/experiments/de2/materials/stim_files/11.png,./static/experiments/de2/materials/stim_files/3.png,1,no,1,2291,1.0,42,1
6,6,0,./static/experiments/de2/materials/stim_files/5.png,./static/experiments/de2/materials/stim_files/13.png,1,no,1,1564,1.0,42,1
7,7,0,./static/experiments/de2/materials/stim_files/6.png,./static/experiments/de2/materials/stim_files/7.png,0,yes,1,1145,1.0,42,1
8,8,0,./static/experiments/de2/materials/stim_files/8.png,./static/experiments/de2/materials/stim_files/16.png,1,no,1,1448,1.0,42,1
9,9,0,./static/experiments/de2/materials/stim_files/14.png,./static/experiments/de2/materials/stim_files/13.png,0,yes,1,1105,1.0,42,1
10,10,0,./static/experiments/de2/materials/stim_files/2.png,./static/experiments/de2/materials/stim_files/10.png,1,no,1,1063,1.0,42,1
11,11,0,./static/experiments/de2/materials/stim_files/14.png,./static/experiments/de2/materials/stim_files/15.png,0,yes,1,958,1.0,42,1
12,12,0,./static/experiments/de2/materials/stim_files/10.png,./static/experiments/de2/materials/stim_files/11.png,0,yes,1,1533,1.0,42,1
13,13,0,./static/experiments/de2/materials/stim_files/16.png,./static/experiments/de2/materials/stim_files/8.png,1,no,1,974,1.0,42,1
14,14,0,./static/experiments/de2/materials/stim_files/14.png,./static/experiments/de2/materials/stim_files/6.png,1,no,1,886,1.0,42,1
15,15,0,./static/experiments/de2/materials/stim_files/10.png,./static/experiments/de2/materials/stim_files/9.png,0,yes,1,944,1.0,42,1
16,16,0,./static/experiments/de2/materials/stim_files/14.png,./static/experiments/de2/materials/stim_files/6.png,1,no,1,861,1.0,42,1
17,17,0,./static/experiments/de2/materials/stim_files/6.png,./static/experiments/de2/materials/stim_files/5.png,0,no,0,789,1.0,42,1
18,18,0,./static/experiments/de2/materials/stim_files/7.png,./static/experiments/de2/materials/stim_files/15.png,1,no,1,1492,1.0,42,1
19,19,0,./static/experiments/de2/materials/stim_files/1.png,./static/experiments/de2/materials/stim_files/2.png,0,yes,1,1768,1.0,42,1
20,20,0,./static/experiments/de2/materials/stim_files/12.png,./static/experiments/de2/materials/stim_files/4.png,1,no,1,1799,1.0,42,1
21,21,0,./static/experiments/de2/materials/stim_files/7.png,./static/experiments/de2/materials/stim_files/8.png,0,yes,1,984,1.0,42,1
22,22,0,./static/experiments/de2/materials/stim_files/5.png,./static/experiments/de2/materials/stim_files/4.png,0,yes,1,861,1.0,42,1
23,23,0,./static/experiments/de2/materials/stim_files/12.png,./static/experiments/de2/materials/stim_files/4.png,1,no,1,830,1.0,42,1
24,24,0,./static/experiments/de2/materials/stim_files/4.png,./static/experiments/de2/materials/stim_files/3.png,0,yes,1,901,1.0,42,1
25,25,0,./static/experiments/de2/materials/stim_files/1.png,./static/experiments/de2/materials/stim_files/9.png,1,no,1,934,1.0,42,1
26,26,0,./static/experiments/de2/materials/stim_files/12.png,./static/experiments/de2/materials/stim_files/13.png,0,yes,1,934,1.0,42,1
27,27,0,./static/experiments/de2/materials/stim_files/16.png,./static/experiments/de2/materials/stim_files/15.png,0,yes,1,1024,1.0,42,1
28,28,0,./static/experiments/de2/materials/stim_files/9.png,./static/experiments/de2/materials/stim_files/8.png,0,yes,1,903,1.0,42,1
29,29,0,./static/experiments/de2/materials/stim_files/2.png,./static/experiments/de2/materials/stim_files/3.png,0,yes,1,943,1.0,42,1
30,30,0,./static/experiments/de2/materials/stim_files/10.png,./static/experiments/de2/materials/stim_files/2.png,1,no,1,853,1.0,42,1
31,0,0,./static/experiments/de2/materials/stim_files/13.png,./static/experiments/de2/materials/stim_files/5.png,,,,9,,131,2
32,1,0,./static/experiments/de2/materials/stim_files/2.png,./static/experiments/de2/materials/stim_files/10.png,,,,5516,,131,2
33,2,0,./static/experiments/de2/materials/stim_files/15.png,./static/experiments/de2/materials/stim_files/7.png,,,,2748,,131,2
34,3,0,./static/experiments/de2/materials/stim_files/8.png,./static/experiments/de2/materials/stim_files/16.png,,,,2202,,131,2
35,4,0,./static/experiments/de2/materials/stim_files/9.png,./static/experiments/de2/materials/stim_files/1.png,,,,2220,,131,2
36,5,0,./static/experiments/de2/materials/stim_files/11.png,./static/experiments/de2/materials/stim_files/3.png,,,,2340,,131,2
37,6,0,./static/experiments/de2/materials/stim_files/16.png,./static/experiments/de2/materials/stim_files/8.png,,,,2171,,131,2
38,7,0,./static/experiments/de2/materials/stim_files/3.png,./static/experiments/de2/materials/stim_files/11.png,,,,2226,,131,2
39,8,0,./static/experiments/de2/materials/stim_files/13.png,./static/experiments/de2/materials/stim_files/5.png,,,,2172,,131,2
40,9,0,./static/experiments/de2/materials/stim_files/12.png,./static/experiments/de2/materials/stim_files/4.png,,,,2149,,131,2
41,10,0,./static/experiments/de2/materials/stim_files/1.png,./static/experiments/de2/materials/stim_files/9.png,,,,2154,,131,2
42,11,0,./static/experiments/de2/materials/stim_files/14.png,./static/experiments/de2/materials/stim_files/6.png,,,,2108,,131,2
43,12,0,./static/experiments/de2/materials/stim_files/10.png,./static/experiments/de2/materials/stim_files/2.png,,,,2170,,131,2
44,13,0,./static/experiments/de2/materials/stim_files/14.png,./static/experiments/de2/materials/stim_files/6.png,,,,2063,,131,2
45,14,0,./static/experiments/de2/materials/stim_files/12.png,./static/experiments/de2/materials/stim_files/4.png,,,,2136,,131,2
46,15,0,./static/experiments/de2/materials/stim_files/15.png,./static/experiments/de2/materials/stim_files/7.png,,,,2117,,131,2
47,0,1,./static/experiments/de2/materials/stim_files/15.png,./static/experiments/de2/materials/stim_files/7.png,,,,2067,,131,2
48,1,1,./static/experiments/de2/materials/stim_files/13.png,./static/experiments/de2/materials/stim_files/5.png,,,,2072,,131,2
49,2,1,./static/experiments/de2/materials/stim_files/9.png,./static/experiments/de2/materials/stim_files/1.png,,,,7515,,131,2
50,3,1,./static/experiments/de2/materials/stim_files/14.png,./static/experiments/de2/materials/stim_files/6.png,,,,2025,,131,2
51,4,1,./static/experiments/de2/materials/stim_files/13.png,./static/experiments/de2/materials/stim_files/5.png,,,,2002,,131,2
52,5,1,./static/experiments/de2/materials/stim_files/1.png,./static/experiments/de2/materials/stim_files/9.png,,,,4322,,131,2
53,6,1,./static/experiments/de2/materials/stim_files/6.png,./static/experiments/de2/materials/stim_files/14.png,,,,2969,,131,2
54,7,1,./static/experiments/de2/materials/stim_files/11.png,./static/experiments/de2/materials/stim_files/3.png,,,,2092,,131,2
55,8,1,./static/experiments/de2/materials/stim_files/8.png,./static/experiments/de2/materials/stim_files/16.png,,,,2069,,131,2
56,9,1,./static/experiments/de2/materials/stim_files/10.png,./static/experiments/de2/materials/stim_files/2.png,,,,2071,,131,2
57,10,1,./static/experiments/de2/materials/stim_files/4.png,./static/experiments/de2/materials/stim_files/12.png,,,,2026,,131,2
58,11,1,./static/experiments/de2/materials/stim_files/11.png,./static/experiments/de2/materials/stim_files/3.png,,,,2024,,131,2
59,12,1,./static/experiments/de2/materials/stim_files/8.png,./static/experiments/de2/materials/stim_files/16.png,,,,2003,,131,2
60,13,1,./static/experiments/de2/materials/stim_files/2.png,./static/experiments/de2/materials/stim_files/10.png,,,,2272,,131,2
61,14,1,./static/experiments/de2/materials/stim_files/4.png,./static/experiments/de2/materials/stim_files/12.png,,,,1980,,131,2
62,15,1,./static/experiments/de2/materials/stim_files/15.png,./static/experiments/de2/materials/stim_files/7.png,,,,2026,,131,2
63,0,0,./static/experiments/de2/materials/stim_files/8.png,./static/experiments/de2/materials/stim_files/16.png,,,,10,,219,2
64,1,0,./static/experiments/de2/materials/stim_files/3.png,./static/experiments/de2/materials/stim_files/11.png,,,,12216,,219,2
65,2,0,./static/experiments/de2/materials/stim_files/9.png,./static/experiments/de2/materials/stim_files/1.png,,,,7445,,219,2
66,3,0,./static/experiments/de2/materials/stim_files/14.png,./static/experiments/de2/materials/stim_files/6.png,,,,3395,,219,2
67,4,0,./static/experiments/de2/materials/stim_files/2.png,./static/experiments/de2/materials/stim_files/10.png,,,,3940,,219,2
68,5,0,./static/experiments/de2/materials/stim_files/8.png,./static/experiments/de2/materials/stim_files/16.png,,,,2762,,219,2
69,6,0,./static/experiments/de2/materials/stim_files/1.png,./static/experiments/de2/materials/stim_files/9.png,,,,3507,,219,2
70,7,0,./static/experiments/de2/materials/stim_files/7.png,./static/experiments/de2/materials/stim_files/15.png,,,,3907,,219,2
71,8,0,./static/experiments/de2/materials/stim_files/7.png,./static/experiments/de2/materials/stim_files/15.png,,,,2576,,219,2
72,9,0,./static/experiments/de2/materials/stim_files/10.png,./static/experiments/de2/materials/stim_files/2.png,,,,2652,,219,2
73,10,0,./static/experiments/de2/materials/stim_files/4.png,./static/experiments/de2/materials/stim_files/12.png,,,,3109,,219,2
74,11,0,./static/experiments/de2/materials/stim_files/5.png,./static/experiments/de2/materials/stim_files/13.png,,,,2295,,219,2
75,12,0,./static/experiments/de2/materials/stim_files/14.png,./static/experiments/de2/materials/stim_files/6.png,,,,3121,,219,2
76,13,0,./static/experiments/de2/materials/stim_files/5.png,./static/experiments/de2/materials/stim_files/13.png,,,,2766,,219,2
77,14,0,./static/experiments/de2/materials/stim_files/3.png,./static/experiments/de2/materials/stim_files/11.png,,,,2579,,219,2
78,15,0,./static/experiments/de2/materials/stim_files/12.png,./static/experiments/de2/materials/stim_files/4.png,,,,2251,,219,2
79,0,1,./static/experiments/de2/materials/stim_files/13.png,./static/experiments/de2/materials/stim_files/5.png,,,,2920,,219,2
80,1,1,./static/experiments/de2/materials/stim_files/14.png,./static/experiments/de2/materials/stim_files/6.png,,,,2698,,219,2
81,2,1,./static/experiments/de2/materials/stim_files/11.png,./static/experiments/de2/materials/stim_files/3.png,,,,2354,,219,2
82,3,1,./static/experiments/de2/materials/stim_files/12.png,./static/experiments/de2/materials/stim_files/4.png,,,,2256,,219,2
83,4,1,./static/experiments/de2/materials/stim_files/12.png,./static/experiments/de2/materials/stim_files/4.png,,,,2196,,219,2
84,5,1,./static/experiments/de2/materials/stim_files/7.png,./static/experiments/de2/materials/stim_files/15.png,,,,2360,,219,2
85,6,1,./static/experiments/de2/materials/stim_files/7.png,./static/experiments/de2/materials/stim_files/15.png,,,,2176,,219,2
86,7,1,./static/experiments/de2/materials/stim_files/13.png,./static/experiments/de2/materials/stim_files/5.png,,,,2154,,219,2
87,8,1,./static/experiments/de2/materials/stim_files/2.png,./static/experiments/de2/materials/stim_files/10.png,,,,2197,,219,2
88,9,1,./static/experiments/de2/materials/stim_files/8.png,./static/experiments/de2/materials/stim_files/16.png,,,,2237,,219,2
89,10,1,./static/experiments/de2/materials/stim_files/1.png,./static/experiments/de2/materials/stim_files/9.png,,,,2201,,219,2
90,11,1,./static/experiments/de2/materials/stim_files/8.png,./static/experiments/de2/materials/stim_files/16.png,,,,2157,,219,2
91,12,1,./static/experiments/de2/materials/stim_files/9.png,./static/experiments/de2/materials/stim_files/1.png,,,,2316,,219,2
92,13,1,./static/experiments/de2/materials/stim_files/11.png,./static/experiments/de2/materials/stim_files/3.png,,,,2316,,219,2
93,14,1,./static/experiments/de2/materials/stim_files/6.png,./static/experiments/de2/materials/stim_files/14.png,,,,2314,,219,2
94,15,1,./static/experiments/de2/materials/stim_files/2.png,./static/experiments/de2/materials/stim_files/10.png,,,,2224,,219,2
95,0,0,./static/experiments/de2/materials/stim_files/1.png,./static/experiments/de2/materials/stim_files/9.png,,,,8,,253,2
96,1,0,./static/experiments/de2/materials/stim_files/1.png,./static/experiments/de2/materials/stim_files/9.png,,,,12211,,253,2
97,2,0,./static/experiments/de2/materials/stim_files/10.png,./static/experiments/de2/materials/stim_files/2.png,,,,4963,,253,2
98,3,0,./static/experiments/de2/materials/stim_files/11.png,./static/experiments/de2/materials/stim_files/3.png,,,,11086,,253,2
99,4,0,./static/experiments/de2/materials/stim_files/6.png,./static/experiments/de2/materials/stim_files/14.png,,,,9341,,253,2
100,5,0,./static/experiments/de2/materials/stim_files/15.png,./static/experiments/de2/materials/stim_files/7.png,,,,5210,,253,2
101,6,0,./static/experiments/de2/materials/stim_files/16.png,./static/experiments/de2/materials/stim_files/8.png,,,,4644,,253,2
102,7,0,./static/experiments/de2/materials/stim_files/12.png,./static/experiments/de2/materials/stim_files/4.png,,,,6787,,253,2
103,8,0,./static/experiments/de2/materials/stim_files/7.png,./static/experiments/de2/materials/stim_files/15.png,,,,6651,,253,2
104,9,0,./static/experiments/de2/materials/stim_files/2.png,./static/experiments/de2/materials/stim_files/10.png,,,,4848,,253,2
105,10,0,./static/experiments/de2/materials/stim_files/8.png,./static/experiments/de2/materials/stim_files/16.png,,,,5608,,253,2
106,11,0,./static/experiments/de2/materials/stim_files/4.png,./static/experiments/de2/materials/stim_files/12.png,,,,8329,,253,2
107,12,0,./static/experiments/de2/materials/stim_files/5.png,./static/experiments/de2/materials/stim_files/13.png,,,,5534,,253,2
108,13,0,./static/experiments/de2/materials/stim_files/5.png,./static/experiments/de2/materials/stim_files/13.png,,,,15516,,253,2
109,14,0,./static/experiments/de2/materials/stim_files/6.png,./static/experiments/de2/materials/stim_files/14.png,,,,11055,,253,2
110,15,0,./static/experiments/de2/materials/stim_files/11.png,./static/experiments/de2/materials/stim_files/3.png,,,,8668,,253,2
111,0,1,./static/experiments/de2/materials/stim_files/15.png,./static/experiments/de2/materials/stim_files/7.png,,,,7535,,253,2
112,1,1,./static/experiments/de2/materials/stim_files/12.png,./static/experiments/de2/materials/stim_files/4.png,,,,7104,,253,2
113,2,1,./static/experiments/de2/materials/stim_files/11.png,./static/experiments/de2/materials/stim_files/3.png,,,,8623,,253,2
114,3,1,./static/experiments/de2/materials/stim_files/8.png,./static/experiments/de2/materials/stim_files/16.png,,,,11074,,253,2
115,4,1,./static/experiments/de2/materials/stim_files/10.png,./static/experiments/de2/materials/stim_files/2.png,,,,11830,,253,2
116,5,1,./static/experiments/de2/materials/stim_files/5.png,./static/experiments/de2/materials/stim_files/13.png,,,,16428,,253,2
117,6,1,./static/experiments/de2/materials/stim_files/3.png,./static/experiments/de2/materials/stim_files/11.png,,,,6452,,253,2
118,7,1,./static/experiments/de2/materials/stim_files/15.png,./static/experiments/de2/materials/stim_files/7.png,,,,18738,,253,2
119,8,1,./static/experiments/de2/materials/stim_files/6.png,./static/experiments/de2/materials/stim_files/14.png,,,,4467,,253,2
120,9,1,./static/experiments/de2/materials/stim_files/9.png,./static/experiments/de2/materials/stim_files/1.png,,,,8285,,253,2
121,10,1,./static/experiments/de2/materials/stim_files/13.png,./static/experiments/de2/materials/stim_files/5.png,,,,5352,,253,2
122,11,1,./static/experiments/de2/materials/stim_files/4.png,./static/experiments/de2/materials/stim_files/12.png,,,,6672,,253,2
123,12,1,./static/experiments/de2/materials/stim_files/10.png,./static/experiments/de2/materials/stim_files/2.png,,,,5724,,253,2
124,13,1,./static/experiments/de2/materials/stim_files/1.png,./static/experiments/de2/materials/stim_files/9.png,,,,5635,,253,2
125,14,1,./static/experiments/de2/materials/stim_files/16.png,./static/experiments/de2/materials/stim_files/8.png,,,,8232,,253,2
126,15,1,./static/experiments/de2/materials/stim_files/6.png,./static/experiments/de2/materials/stim_files/14.png,,,,2476,,253,2
127,0,0,./static/experiments/de2/materials/stim_files/11.png,./static/experiments/de2/materials/stim_files/3.png,1,no,0,19095,0.0,124,1
128,1,0,./static/experiments/de2/materials/stim_files/12.png,./static/experiments/de2/materials/stim_files/4.png,1,yes,1,2515,0.0,124,1
129,2,0,./static/experiments/de2/materials/stim_files/12.png,./static/experiments/de2/materials/stim_files/11.png,0,yes,0,2313,0.0,124,1
130,3,0,./static/experiments/de2/materials/stim_files/8.png,./static/experiments/de2/materials/stim_files/7.png,0,no,1,1626,0.0,124,1
131,4,0,./static/experiments/de2/materials/stim_files/2.png,./static/experiments/de2/materials/stim_files/1.png,0,no,1,1290,0.0,124,1
132,5,0,./static/experiments/de2/materials/stim_files/2.png,./static/experiments/de2/materials/stim_files/3.png,0,no,1,1715,0.0,124,1
133,6,0,./static/experiments/de2/materials/stim_files/14.png,./static/experiments/de2/materials/stim_files/15.png,0,no,1,1192,0.0,124,1
134,7,0,./static/experiments/de2/materials/stim_files/9.png,./static/experiments/de2/materials/stim_files/1.png,1,yes,1,1235,0.0,124,1
135,8,0,./static/experiments/de2/materials/stim_files/6.png,./static/experiments/de2/materials/stim_files/5.png,0,no,1,1152,0.0,124,1
136,9,0,./static/experiments/de2/materials/stim_files/11.png,./static/experiments/de2/materials/stim_files/3.png,1,yes,1,1343,0.0,124,1
137,10,0,./static/experiments/de2/materials/stim_files/9.png,./static/experiments/de2/materials/stim_files/1.png,1,yes,1,1088,0.0,124,1
138,11,0,./static/experiments/de2/materials/stim_files/6.png,./static/experiments/de2/materials/stim_files/14.png,1,yes,1,1081,0.0,124,1
139,12,0,./static/experiments/de2/materials/stim_files/16.png,./static/experiments/de2/materials/stim_files/8.png,1,yes,1,1001,0.0,124,1
140,13,0,./static/experiments/de2/materials/stim_files/12.png,./static/experiments/de2/materials/stim_files/13.png,0,no,1,1133,0.0,124,1
141,14,0,./static/experiments/de2/materials/stim_files/13.png,./static/experiments/de2/materials/stim_files/14.png,0,no,1,2036,0.0,124,1
142,15,0,./static/experiments/de2/materials/stim_files/13.png,./static/experiments/de2/materials/stim_files/5.png,1,yes,1,1161,0.0,124,1
143,16,0,./static/experiments/de2/materials/stim_files/13.png,./static/experiments/de2/materials/stim_files/5.png,1,yes,1,875,0.0,124,1
144,17,0,./static/experiments/de2/materials/stim_files/11.png,./static/experiments/de2/materials/stim_files/10.png,0,no,1,897,0.0,124,1
145,18,0,./static/experiments/de2/materials/stim_files/4.png,./static/experiments/de2/materials/stim_files/5.png,0,no,1,1173,0.0,124,1
146,19,0,./static/experiments/de2/materials/stim_files/9.png,./static/experiments/de2/materials/stim_files/8.png,0,no,1,1311,0.0,124,1
147,20,0,./static/experiments/de2/materials/stim_files/9.png,./static/experiments/de2/materials/stim_files/10.png,0,no,1,824,0.0,124,1
148,21,0,./static/experiments/de2/materials/stim_files/8.png,./static/experiments/de2/materials/stim_files/16.png,1,yes,1,842,0.0,124,1
149,22,0,./static/experiments/de2/materials/stim_files/7.png,./static/experiments/de2/materials/stim_files/15.png,1,yes,1,888,0.0,124,1
150,23,0,./static/experiments/de2/materials/stim_files/15.png,./static/experiments/de2/materials/stim_files/7.png,1,yes,1,1203,0.0,124,1
151,24,0,./static/experiments/de2/materials/stim_files/15.png,./static/experiments/de2/materials/stim_files/16.png,0,no,1,1048,0.0,124,1
152,25,0,./static/experiments/de2/materials/stim_files/6.png,./static/experiments/de2/materials/stim_files/7.png,0,no,1,1101,0.0,124,1
153,26,0,./static/experiments/de2/materials/stim_files/6.png,./static/experiments/de2/materials/stim_files/14.png,1,yes,1,1091,0.0,124,1
154,27,0,./static/experiments/de2/materials/stim_files/2.png,./static/experiments/de2/materials/stim_files/10.png,1,yes,1,773,0.0,124,1
155,28,0,./static/experiments/de2/materials/stim_files/10.png,./static/experiments/de2/materials/stim_files/2.png,1,yes,1,755,0.0,124,1
156,29,0,./static/experiments/de2/materials/stim_files/3.png,./static/experiments/de2/materials/stim_files/4.png,0,no,1,1144,0.0,124,1
157,30,0,./static/experiments/de2/materials/stim_files/4.png,./static/experiments/de2/materials/stim_files/12.png,1,yes,1,840,0.0,124,1
158,0,0,./static/experiments/de2/materials/stim_files/1.png,./static/experiments/de2/materials/stim_files/9.png,1,no,1,8157,1.0,198,1
159,1,0,./static/experiments/de2/materials/stim_files/4.png,./static/experiments/de2/materials/stim_files/3.png,0,yes,1,2207,1.0,198,1
160,2,0,./static/experiments/de2/materials/stim_files/5.png,./static/experiments/de2/materials/stim_files/6.png,0,yes,1,2977,1.0,198,1
161,3,0,./static/experiments/de2/materials/stim_files/15.png,./static/experiments/de2/materials/stim_files/7.png,1,no,1,1457,1.0,198,1
162,4,0,./static/experiments/de2/materials/stim_files/3.png,./static/experiments/de2/materials/stim_files/11.png,1,no,1,1181,1.0,198,1
163,5,0,./static/experiments/de2/materials/stim_files/16.png,./static/experiments/de2/materials/stim_files/8.png,1,no,1,1142,1.0,198,1
164,6,0,./static/experiments/de2/materials/stim_files/13.png,./static/experiments/de2/materials/stim_files/5.png,1,no,1,1049,1.0,198,1
165,7,0,./static/experiments/de2/materials/stim_files/9.png,./static/experiments/de2/materials/stim_files/1.png,1,no,1,943,1.0,198,1
166,8,0,./static/experiments/de2/materials/stim_files/12.png,./static/experiments/de2/materials/stim_files/4.png,1,no,1,1177,1.0,198,1
167,9,0,./static/experiments/de2/materials/stim_files/4.png,./static/experiments/de2/materials/stim_files/5.png,0,yes,1,1228,1.0,198,1
168,10,0,./static/experiments/de2/materials/stim_files/3.png,./static/experiments/de2/materials/stim_files/11.png,1,no,1,1032,1.0,198,1
169,11,0,./static/experiments/de2/materials/stim_files/6.png,./static/experiments/de2/materials/stim_files/14.png,1,no,1,949,1.0,198,1
170,12,0,./static/experiments/de2/materials/stim_files/5.png,./static/experiments/de2/materials/stim_files/13.png,1,no,1,689,1.0,198,1
171,13,0,./static/experiments/de2/materials/stim_files/15.png,./static/experiments/de2/materials/stim_files/14.png,0,yes,1,805,1.0,198,1
172,14,0,./static/experiments/de2/materials/stim_files/13.png,./static/experiments/de2/materials/stim_files/12.png,0,yes,1,679,1.0,198,1
173,15,0,./static/experiments/de2/materials/stim_files/15.png,./static/experiments/de2/materials/stim_files/16.png,0,yes,1,870,1.0,198,1
174,16,0,./static/experiments/de2/materials/stim_files/6.png,./static/experiments/de2/materials/stim_files/7.png,0,yes,1,1035,1.0,198,1
175,17,0,./static/experiments/de2/materials/stim_files/11.png,./static/experiments/de2/materials/stim_files/12.png,0,yes,1,862,1.0,198,1
176,18,0,./static/experiments/de2/materials/stim_files/8.png,./static/experiments/de2/materials/stim_files/9.png,0,yes,1,756,1.0,198,1
177,19,0,./static/experiments/de2/materials/stim_files/11.png,./static/experiments/de2/materials/stim_files/10.png,0,yes,1,898,1.0,198,1
178,20,0,./static/experiments/de2/materials/stim_files/13.png,./static/experiments/de2/materials/stim_files/14.png,0,yes,1,729,1.0,198,1
179,21,0,./static/experiments/de2/materials/stim_files/15.png,./static/experiments/de2/materials/stim_files/7.png,1,no,1,921,1.0,198,1
180,22,0,./static/experiments/de2/materials/stim_files/2.png,./static/experiments/de2/materials/stim_files/10.png,1,no,1,1254,1.0,198,1
181,23,0,./static/experiments/de2/materials/stim_files/16.png,./static/experiments/de2/materials/stim_files/8.png,1,no,1,897,1.0,198,1
182,24,0,./static/experiments/de2/materials/stim_files/14.png,./static/experiments/de2/materials/stim_files/6.png,1,no,1,823,1.0,198,1
183,25,0,./static/experiments/de2/materials/stim_files/8.png,./static/experiments/de2/materials/stim_files/7.png,0,yes,1,810,1.0,198,1
184,26,0,./static/experiments/de2/materials/stim_files/9.png,./static/experiments/de2/materials/stim_files/10.png,0,yes,1,944,1.0,198,1
185,27,0,./static/experiments/de2/materials/stim_files/2.png,./static/experiments/de2/materials/stim_files/3.png,0,yes,1,945,1.0,198,1
186,28,0,./static/experiments/de2/materials/stim_files/4.png,./static/experiments/de2/materials/stim_files/12.png,1,no,1,778,1.0,198,1
187,29,0,./static/experiments/de2/materials/stim_files/10.png,./static/experiments/de2/materials/stim_files/2.png,1,no,1,721,1.0,198,1
188,30,0,./static/experiments/de2/materials/stim_files/2.png,./static/experiments/de2/materials/stim_files/1.png,0,yes,1,1087,1.0,198,1
189,0,0,./static/experiments/de2/materials/stim_files/12.png,./static/experiments/de2/materials/stim_files/13.png,,,,11,,108,3
190,1,0,./static/experiments/de2/materials/stim_files/9.png,./static/experiments/de2/materials/stim_files/10.png,,,,14473,,108,3
191,2,0,./static/experiments/de2/materials/stim_files/2.png,./static/experiments/de2/materials/stim_files/3.png,,,,12400,,108,3
192,3,0,./static/experiments/de2/materials/stim_files/9.png,./static/experiments/de2/materials/stim_files/8.png,,,,11500,,108,3
193,4,0,./static/experiments/de2/materials/stim_files/5.png,./static/experiments/de2/materials/stim_files/6.png,,,,11499,,108,3
194,5,0,./static/experiments/de2/materials/stim_files/13.png,./static/experiments/de2/materials/stim_files/14.png,,,,3913,,108,3
195,6,0,./static/experiments/de2/materials/stim_files/6.png,./static/experiments/de2/materials/stim_files/7.png,,,,11451,,108,3
196,7,0,./static/experiments/de2/materials/stim_files/1.png,./static/experiments/de2/materials/stim_files/2.png,,,,7666,,108,3
197,8,0,./static/experiments/de2/materials/stim_files/4.png,./static/experiments/de2/materials/stim_files/3.png,,,,7238,,108,3
198,9,0,./static/experiments/de2/materials/stim_files/8.png,./static/experiments/de2/materials/stim_files/7.png,,,,26808,,108,3
199,10,0,./static/experiments/de2/materials/stim_files/10.png,./static/experiments/de2/materials/stim_files/11.png,,,,14185,,108,3
200,11,0,./static/experiments/de2/materials/stim_files/11.png,./static/experiments/de2/materials/stim_files/12.png,,,,17997,,108,3
201,12,0,./static/experiments/de2/materials/stim_files/14.png,./static/experiments/de2/materials/stim_files/15.png,,,,22383,,108,3
202,13,0,./static/experiments/de2/materials/stim_files/5.png,./static/experiments/de2/materials/stim_files/4.png,,,,25312,,108,3
203,14,0,./static/experiments/de2/materials/stim_files/16.png,./static/experiments/de2/materials/stim_files/15.png,,,,16754,,108,3
204,0,1,./static/experiments/de2/materials/stim_files/13.png,./static/experiments/de2/materials/stim_files/14.png,,,,37790,,108,3
205,1,1,./static/experiments/de2/materials/stim_files/8.png,./static/experiments/de2/materials/stim_files/7.png,,,,11234,,108,3
206,2,1,./static/experiments/de2/materials/stim_files/12.png,./static/experiments/de2/materials/stim_files/11.png,,,,8180,,108,3
207,3,1,./static/experiments/de2/materials/stim_files/16.png,./static/experiments/de2/materials/stim_files/15.png,,,,10699,,108,3
208,4,1,./static/experiments/de2/materials/stim_files/1.png,./static/experiments/de2/materials/stim_files/2.png,,,,7590,,108,3
209,5,1,./static/experiments/de2/materials/stim_files/5.png,./static/experiments/de2/materials/stim_files/4.png,,,,11615,,108,3
210,6,1,./static/experiments/de2/materials/stim_files/14.png,./static/experiments/de2/materials/stim_files/15.png,,,,9597,,108,3
211,7,1,./static/experiments/de2/materials/stim_files/9.png,./static/experiments/de2/materials/stim_files/10.png,,,,15475,,108,3
212,8,1,./static/experiments/de2/materials/stim_files/3.png,./static/experiments/de2/materials/stim_files/4.png,,,,6577,,108,3
213,9,1,./static/experiments/de2/materials/stim_files/10.png,./static/experiments/de2/materials/stim_files/11.png,,,,5497,,108,3
214,10,1,./static/experiments/de2/materials/stim_files/3.png,./static/experiments/de2/materials/stim_files/2.png,,,,7594,,108,3
215,11,1,./static/experiments/de2/materials/stim_files/6.png,./static/experiments/de2/materials/stim_files/5.png,,,,12369,,108,3
216,12,1,./static/experiments/de2/materials/stim_files/12.png,./static/experiments/de2/materials/stim_files/13.png,,,,31414,,108,3
217,13,1,./static/experiments/de2/materials/stim_files/8.png,./static/experiments/de2/materials/stim_files/9.png,,,,13581,,108,3
218,14,1,./static/experiments/de2/materials/stim_files/6.png,./static/experiments/de2/materials/stim_files/7.png,,,,6233,,108,3
219,0,0,./static/experiments/de2/materials/stim_files/4.png,./static/experiments/de2/materials/stim_files/5.png,,,,8,,227,3
220,1,0,./static/experiments/de2/materials/stim_files/6.png,./static/experiments/de2/materials/stim_files/7.png,,,,5164,,227,3
221,2,0,./static/experiments/de2/materials/stim_files/16.png,./static/experiments/de2/materials/stim_files/15.png,,,,2754,,227,3
222,3,0,./static/experiments/de2/materials/stim_files/3.png,./static/experiments/de2/materials/stim_files/2.png,,,,2428,,227,3
223,4,0,./static/experiments/de2/materials/stim_files/11.png,./static/experiments/de2/materials/stim_files/10.png,,,,2317,,227,3
224,5,0,./static/experiments/de2/materials/stim_files/1.png,./static/experiments/de2/materials/stim_files/2.png,,,,2295,,227,3
225,6,0,./static/experiments/de2/materials/stim_files/12.png,./static/experiments/de2/materials/stim_files/11.png,,,,2311,,227,3
226,7,0,./static/experiments/de2/materials/stim_files/10.png,./static/experiments/de2/materials/stim_files/9.png,,,,2233,,227,3
227,8,0,./static/experiments/de2/materials/stim_files/13.png,./static/experiments/de2/materials/stim_files/12.png,,,,2294,,227,3
228,9,0,./static/experiments/de2/materials/stim_files/9.png,./static/experiments/de2/materials/stim_files/8.png,,,,2258,,227,3
229,10,0,./static/experiments/de2/materials/stim_files/4.png,./static/experiments/de2/materials/stim_files/3.png,,,,2224,,227,3
230,11,0,./static/experiments/de2/materials/stim_files/5.png,./static/experiments/de2/materials/stim_files/6.png,,,,2145,,227,3
231,12,0,./static/experiments/de2/materials/stim_files/15.png,./static/experiments/de2/materials/stim_files/14.png,,,,2062,,227,3
232,13,0,./static/experiments/de2/materials/stim_files/13.png,./static/experiments/de2/materials/stim_files/14.png,,,,1819,,227,3
233,14,0,./static/experiments/de2/materials/stim_files/7.png,./static/experiments/de2/materials/stim_files/8.png,,,,2075,,227,3
234,0,1,./static/experiments/de2/materials/stim_files/11.png,./static/experiments/de2/materials/stim_files/12.png,,,,1776,,227,3
235,1,1,./static/experiments/de2/materials/stim_files/8.png,./static/experiments/de2/materials/stim_files/9.png,,,,1957,,227,3
236,2,1,./static/experiments/de2/materials/stim_files/16.png,./static/experiments/de2/materials/stim_files/15.png,,,,1782,,227,3
237,3,1,./static/experiments/de2/materials/stim_files/12.png,./static/experiments/de2/materials/stim_files/13.png,,,,2126,,227,3
238,4,1,./static/experiments/de2/materials/stim_files/4.png,./static/experiments/de2/materials/stim_files/3.png,,,,2088,,227,3
239,5,1,./static/experiments/de2/materials/stim_files/3.png,./static/experiments/de2/materials/stim_files/2.png,,,,2010,,227,3
240,6,1,./static/experiments/de2/materials/stim_files/6.png,./static/experiments/de2/materials/stim_files/7.png,,,,1963,,227,3
241,7,1,./static/experiments/de2/materials/stim_files/10.png,./static/experiments/de2/materials/stim_files/11.png,,,,2111,,227,3
242,8,1,./static/experiments/de2/materials/stim_files/10.png,./static/experiments/de2/materials/stim_files/9.png,,,,2108,,227,3
243,9,1,./static/experiments/de2/materials/stim_files/6.png,./static/experiments/de2/materials/stim_files/5.png,,,,2120,,227,3
244,10,1,./static/experiments/de2/materials/stim_files/1.png,./static/experiments/de2/materials/stim_files/2.png,,,,2128,,227,3
245,11,1,./static/experiments/de2/materials/stim_files/7.png,./static/experiments/de2/materials/stim_files/8.png,,,,2019,,227,3
246,12,1,./static/experiments/de2/materials/stim_files/14.png,./static/experiments/de2/materials/stim_files/15.png,,,,2180,,227,3
247,13,1,./static/experiments/de2/materials/stim_files/13.png,./static/experiments/de2/materials/stim_files/14.png,,,,2130,,227,3
248,14,1,./static/experiments/de2/materials/stim_files/4.png,./static/experiments/de2/materials/stim_files/5.png,,,,2076,,227,3
249,0,0,./static/experiments/de2/materials/stim_files/3.png,./static/experiments/de2/materials/stim_files/11.png,,,,17,,178,2
250,1,0,./static/experiments/de2/materials/stim_files/12.png,./static/experiments/de2/materials/stim_files/4.png,,,,11155,,178,2
251,2,0,./static/experiments/de2/materials/stim_files/1.png,./static/experiments/de2/materials/stim_files/9.png,,,,2528,,178,2
252,3,0,./static/experiments/de2/materials/stim_files/8.png,./static/experiments/de2/materials/stim_files/16.png,,,,3043,,178,2
253,4,0,./static/experiments/de2/materials/stim_files/5.png,./static/experiments/de2/materials/stim_files/13.png,,,,2413,,178,2
254,5,0,./static/experiments/de2/materials/stim_files/7.png,./static/experiments/de2/materials/stim_files/15.png,,,,2395,,178,2
255,6,0,./static/experiments/de2/materials/stim_files/15.png,./static/experiments/de2/materials/stim_files/7.png,,,,2267,,178,2
256,7,0,./static/experiments/de2/materials/stim_files/4.png,./static/experiments/de2/materials/stim_files/12.png,,,,2059,,178,2
257,8,0,./static/experiments/de2/materials/stim_files/10.png,./static/experiments/de2/materials/stim_files/2.png,,,,2198,,178,2
258,9,0,./static/experiments/de2/materials/stim_files/11.png,./static/experiments/de2/materials/stim_files/3.png,,,,2218,,178,2
259,10,0,./static/experiments/de2/materials/stim_files/6.png,./static/experiments/de2/materials/stim_files/14.png,,,,2848,,178,2
260,11,0,./static/experiments/de2/materials/stim_files/8.png,./static/experiments/de2/materials/stim_files/16.png,,,,2154,,178,2
261,12,0,./static/experiments/de2/materials/stim_files/13.png,./static/experiments/de2/materials/stim_files/5.png,,,,2006,,178,2
262,13,0,./static/experiments/de2/materials/stim_files/6.png,./static/experiments/de2/materials/stim_files/14.png,,,,2063,,178,2
263,14,0,./static/experiments/de2/materials/stim_files/1.png,./static/experiments/de2/materials/stim_files/9.png,,,,2379,,178,2
264,15,0,./static/experiments/de2/materials/stim_files/2.png,./static/experiments/de2/materials/stim_files/10.png,,,,2176,,178,2
265,0,1,./static/experiments/de2/materials/stim_files/8.png,./static/experiments/de2/materials/stim_files/16.png,,,,2039,,178,2
266,1,1,./static/experiments/de2/materials/stim_files/11.png,./static/experiments/de2/materials/stim_files/3.png,,,,2169,,178,2
267,2,1,./static/experiments/de2/materials/stim_files/9.png,./static/experiments/de2/materials/stim_files/1.png,,,,2034,,178,2
268,3,1,./static/experiments/de2/materials/stim_files/5.png,./static/experiments/de2/materials/stim_files/13.png,,,,2303,,178,2
269,4,1,./static/experiments/de2/materials/stim_files/15.png,./static/experiments/de2/materials/stim_files/7.png,,,,2121,,178,2
270,5,1,./static/experiments/de2/materials/stim_files/3.png,./static/experiments/de2/materials/stim_files/11.png,,,,2714,,178,2
271,6,1,./static/experiments/de2/materials/stim_files/7.png,./static/experiments/de2/materials/stim_files/15.png,,,,2119,,178,2
272,7,1,./static/experiments/de2/materials/stim_files/4.png,./static/experiments/de2/materials/stim_files/12.png,,,,2099,,178,2
273,8,1,./static/experiments/de2/materials/stim_files/13.png,./static/experiments/de2/materials/stim_files/5.png,,,,2295,,178,2
274,9,1,./static/experiments/de2/materials/stim_files/2.png,./static/experiments/de2/materials/stim_files/10.png,,,,2084,,178,2
275,10,1,./static/experiments/de2/materials/stim_files/4.png,./static/experiments/de2/materials/stim_files/12.png,,,,2065,,178,2
276,11,1,./static/experiments/de2/materials/stim_files/6.png,./static/experiments/de2/materials/stim_files/14.png,,,,2118,,178,2
277,12,1,./static/experiments/de2/materials/stim_files/2.png,./static/experiments/de2/materials/stim_files/10.png,,,,2104,,178,2
278,13,1,./static/experiments/de2/materials/stim_files/1.png,./static/experiments/de2/materials/stim_files/9.png,,,,2279,,178,2
279,14,1,./static/experiments/de2/materials/stim_files/8.png,./static/experiments/de2/materials/stim_files/16.png,,,,2042,,178,2
280,15,1,./static/experiments/de2/materials/stim_files/14.png,./static/experiments/de2/materials/stim_files/6.png,,,,2036,,178,2
281,0,0,./static/experiments/de2/materials/stim_files/6.png,./static/experiments/de2/materials/stim_files/6.png,,,,23,,28,4
282,1,0,./static/experiments/de2/materials/stim_files/14.png,./static/experiments/de2/materials/stim_files/14.png,,,,18842,,28,4
283,2,0,./static/experiments/de2/materials/stim_files/7.png,./static/experiments/de2/materials/stim_files/7.png,,,,3817,,28,4
284,3,0,./static/experiments/de2/materials/stim_files/8.png,./static/experiments/de2/materials/stim_files/8.png,,,,2933,,28,4
285,4,0,./static/experiments/de2/materials/stim_files/11.png,./static/experiments/de2/materials/stim_files/11.png,,,,4494,,28,4
286,5,0,./static/experiments/de2/materials/stim_files/1.png,./static/experiments/de2/materials/stim_files/1.png,,,,2540,,28,4
287,6,0,./static/experiments/de2/materials/stim_files/12.png,./static/experiments/de2/materials/stim_files/12.png,,,,3865,,28,4
288,7,0,./static/experiments/de2/materials/stim_files/5.png,./static/experiments/de2/materials/stim_files/5.png,,,,2587,,28,4
289,8,0,./static/experiments/de2/materials/stim_files/15.png,./static/experiments/de2/materials/stim_files/15.png,,,,2386,,28,4
290,9,0,./static/experiments/de2/materials/stim_files/13.png,./static/experiments/de2/materials/stim_files/13.png,,,,3004,,28,4
291,10,0,./static/experiments/de2/materials/stim_files/9.png,./static/experiments/de2/materials/stim_files/9.png,,,,2540,,28,4
292,11,0,./static/experiments/de2/materials/stim_files/4.png,./static/experiments/de2/materials/stim_files/4.png,,,,2995,,28,4
293,12,0,./static/experiments/de2/materials/stim_files/10.png,./static/experiments/de2/materials/stim_files/10.png,,,,1907,,28,4
294,13,0,./static/experiments/de2/materials/stim_files/2.png,./static/experiments/de2/materials/stim_files/2.png,,,,2798,,28,4
295,14,0,./static/experiments/de2/materials/stim_files/16.png,./static/experiments/de2/materials/stim_files/16.png,,,,1942,,28,4
296,15,0,./static/experiments/de2/materials/stim_files/3.png,./static/experiments/de2/materials/stim_files/3.png,,,,2286,,28,4
297,0,1,./static/experiments/de2/materials/stim_files/7.png,./static/experiments/de2/materials/stim_files/7.png,,,,1956,,28,4
298,1,1,./static/experiments/de2/materials/stim_files/16.png,./static/experiments/de2/materials/stim_files/16.png,,,,2167,,28,4
299,2,1,./static/experiments/de2/materials/stim_files/15.png,./static/experiments/de2/materials/stim_files/15.png,,,,2084,,28,4
300,3,1,./static/experiments/de2/materials/stim_files/13.png,./static/experiments/de2/materials/stim_files/13.png,,,,4481,,28,4
301,4,1,./static/experiments/de2/materials/stim_files/2.png,./static/experiments/de2/materials/stim_files/2.png,,,,2344,,28,4
302,5,1,./static/experiments/de2/materials/stim_files/4.png,./static/experiments/de2/materials/stim_files/4.png,,,,2181,,28,4
303,6,1,./static/experiments/de2/materials/stim_files/9.png,./static/experiments/de2/materials/stim_files/9.png,,,,2067,,28,4
304,7,1,./static/experiments/de2/materials/stim_files/8.png,./static/experiments/de2/materials/stim_files/8.png,,,,2027,,28,4
305,8,1,./static/experiments/de2/materials/stim_files/5.png,./static/experiments/de2/materials/stim_files/5.png,,,,2323,,28,4
306,9,1,./static/experiments/de2/materials/stim_files/14.png,./static/experiments/de2/materials/stim_files/14.png,,,,2090,,28,4
307,10,1,./static/experiments/de2/materials/stim_files/11.png,./static/experiments/de2/materials/stim_files/11.png,,,,2073,,28,4
308,11,1,./static/experiments/de2/materials/stim_files/10.png,./static/experiments/de2/materials/stim_files/10.png,,,,2044,,28,4
309,12,1,./static/experiments/de2/materials/stim_files/3.png,./static/experiments/de2/materials/stim_files/3.png,,,,2019,,28,4
310,13,1,./static/experiments/de2/materials/stim_files/6.png,./static/experiments/de2/materials/stim_files/6.png,,,,2113,,28,4
311,14,1,./static/experiments/de2/materials/stim_files/12.png,./static/experiments/de2/materials/stim_files/12.png,,,,1949,,28,4
312,15,1,./static/experiments/de2/materials/stim_files/1.png,./static/experiments/de2/materials/stim_files/1.png,,,,2281,,28,4
313,0,0,./static/experiments/de2/materials/stim_files/9.png,./static/experiments/de2/materials/stim_files/8.png,,,,39,,8,3
314,1,0,./static/experiments/de2/materials/stim_files/6.png,./static/experiments/de2/materials/stim_files/7.png,,,,21773,,8,3
315,2,0,./static/experiments/de2/materials/stim_files/15.png,./static/experiments/de2/materials/stim_files/16.png,,,,67750,,8,3
316,3,0,./static/experiments/de2/materials/stim_files/9.png,./static/experiments/de2/materials/stim_files/10.png,,,,128181,,8,3
317,4,0,./static/experiments/de2/materials/stim_files/5.png,./static/experiments/de2/materials/stim_files/6.png,,,,8220,,8,3
318,5,0,./static/experiments/de2/materials/stim_files/11.png,./static/experiments/de2/materials/stim_files/12.png,,,,45256,,8,3
319,6,0,./static/experiments/de2/materials/stim_files/8.png,./static/experiments/de2/materials/stim_files/7.png,,,,6868,,8,3
320,7,0,./static/experiments/de2/materials/stim_files/2.png,./static/experiments/de2/materials/stim_files/3.png,,,,8045,,8,3
321,8,0,./static/experiments/de2/materials/stim_files/12.png,./static/experiments/de2/materials/stim_files/13.png,,,,5540,,8,3
322,9,0,./static/experiments/de2/materials/stim_files/11.png,./static/experiments/de2/materials/stim_files/10.png,,,,8861,,8,3
323,10,0,./static/experiments/de2/materials/stim_files/13.png,./static/experiments/de2/materials/stim_files/14.png,,,,4052,,8,3
324,11,0,./static/experiments/de2/materials/stim_files/5.png,./static/experiments/de2/materials/stim_files/4.png,,,,6170,,8,3
325,12,0,./static/experiments/de2/materials/stim_files/4.png,./static/experiments/de2/materials/stim_files/3.png,,,,4527,,8,3
326,13,0,./static/experiments/de2/materials/stim_files/1.png,./static/experiments/de2/materials/stim_files/2.png,,,,3486,,8,3
327,14,0,./static/experiments/de2/materials/stim_files/14.png,./static/experiments/de2/materials/stim_files/15.png,,,,114140,,8,3
328,0,1,./static/experiments/de2/materials/stim_files/3.png,./static/experiments/de2/materials/stim_files/4.png,,,,7630,,8,3
329,1,1,./static/experiments/de2/materials/stim_files/13.png,./static/experiments/de2/materials/stim_files/14.png,,,,3155,,8,3
330,2,1,./static/experiments/de2/materials/stim_files/15.png,./static/experiments/de2/materials/stim_files/16.png,,,,3830,,8,3
331,3,1,./static/experiments/de2/materials/stim_files/13.png,./static/experiments/de2/materials/stim_files/12.png,,,,3676,,8,3
332,4,1,./static/experiments/de2/materials/stim_files/10.png,./static/experiments/de2/materials/stim_files/11.png,,,,2847,,8,3
333,5,1,./static/experiments/de2/materials/stim_files/9.png,./static/experiments/de2/materials/stim_files/10.png,,,,3372,,8,3
334,6,1,./static/experiments/de2/materials/stim_files/5.png,./static/experiments/de2/materials/stim_files/6.png,,,,3026,,8,3
335,7,1,./static/experiments/de2/materials/stim_files/4.png,./static/experiments/de2/materials/stim_files/5.png,,,,3160,,8,3
336,8,1,./static/experiments/de2/materials/stim_files/9.png,./static/experiments/de2/materials/stim_files/8.png,,,,11891,,8,3
337,9,1,./static/experiments/de2/materials/stim_files/12.png,./static/experiments/de2/materials/stim_files/11.png,,,,13720,,8,3
338,10,1,./static/experiments/de2/materials/stim_files/7.png,./static/experiments/de2/materials/stim_files/8.png,,,,5210,,8,3
339,11,1,./static/experiments/de2/materials/stim_files/15.png,./static/experiments/de2/materials/stim_files/14.png,,,,6768,,8,3
340,12,1,./static/experiments/de2/materials/stim_files/6.png,./static/experiments/de2/materials/stim_files/7.png,,,,4206,,8,3
341,13,1,./static/experiments/de2/materials/stim_files/3.png,./static/experiments/de2/materials/stim_files/2.png,,,,2730,,8,3
342,14,1,./static/experiments/de2/materials/stim_files/2.png,./static/experiments/de2/materials/stim_files/1.png,,,,3586,,8,3
343,0,0,./static/experiments/de2/materials/stim_files/3.png,./static/experiments/de2/materials/stim_files/2.png,,,,17,,110,3
344,1,0,./static/experiments/de2/materials/stim_files/15.png,./static/experiments/de2/materials/stim_files/14.png,,,,8150,,110,3
345,2,0,./static/experiments/de2/materials/stim_files/6.png,./static/experiments/de2/materials/stim_files/7.png,,,,4208,,110,3
346,3,0,./static/experiments/de2/materials/stim_files/9.png,./static/experiments/de2/materials/stim_files/10.png,,,,2651,,110,3
347,4,0,./static/experiments/de2/materials/stim_files/15.png,./static/experiments/de2/materials/stim_files/16.png,,,,2967,,110,3
348,5,0,./static/experiments/de2/materials/stim_files/11.png,./static/experiments/de2/materials/stim_files/10.png,,,,2000,,110,3
349,6,0,./static/experiments/de2/materials/stim_files/12.png,./static/experiments/de2/materials/stim_files/13.png,,,,1980,,110,3
350,7,0,./static/experiments/de2/materials/stim_files/9.png,./static/experiments/de2/materials/stim_files/8.png,,,,2233,,110,3
351,8,0,./static/experiments/de2/materials/stim_files/14.png,./static/experiments/de2/materials/stim_files/13.png,,,,1981,,110,3
352,9,0,./static/experiments/de2/materials/stim_files/12.png,./static/experiments/de2/materials/stim_files/11.png,,,,2500,,110,3
353,10,0,./static/experiments/de2/materials/stim_files/5.png,./static/experiments/de2/materials/stim_files/6.png,,,,2620,,110,3
354,11,0,./static/experiments/de2/materials/stim_files/2.png,./static/experiments/de2/materials/stim_files/1.png,,,,1957,,110,3
355,12,0,./static/experiments/de2/materials/stim_files/7.png,./static/experiments/de2/materials/stim_files/8.png,,,,2420,,110,3
356,13,0,./static/experiments/de2/materials/stim_files/4.png,./static/experiments/de2/materials/stim_files/5.png,,,,2128,,110,3
357,14,0,./static/experiments/de2/materials/stim_files/4.png,./static/experiments/de2/materials/stim_files/3.png,,,,2238,,110,3
358,0,1,./static/experiments/de2/materials/stim_files/15.png,./static/experiments/de2/materials/stim_files/14.png,,,,2034,,110,3
359,1,1,./static/experiments/de2/materials/stim_files/4.png,./static/experiments/de2/materials/stim_files/5.png,,,,2282,,110,3
360,2,1,./static/experiments/de2/materials/stim_files/12.png,./static/experiments/de2/materials/stim_files/11.png,,,,2960,,110,3
361,3,1,./static/experiments/de2/materials/stim_files/9.png,./static/experiments/de2/materials/stim_files/8.png,,,,2099,,110,3
362,4,1,./static/experiments/de2/materials/stim_files/10.png,./static/experiments/de2/materials/stim_files/11.png,,,,1933,,110,3
363,5,1,./static/experiments/de2/materials/stim_files/15.png,./static/experiments/de2/materials/stim_files/16.png,,,,2091,,110,3
364,6,1,./static/experiments/de2/materials/stim_files/8.png,./static/experiments/de2/materials/stim_files/7.png,,,,2149,,110,3
365,7,1,./static/experiments/de2/materials/stim_files/14.png,./static/experiments/de2/materials/stim_files/13.png,,,,1902,,110,3
366,8,1,./static/experiments/de2/materials/stim_files/2.png,./static/experiments/de2/materials/stim_files/3.png,,,,2205,,110,3
367,9,1,./static/experiments/de2/materials/stim_files/3.png,./static/experiments/de2/materials/stim_files/4.png,,,,2362,,110,3
368,10,1,./static/experiments/de2/materials/stim_files/9.png,./static/experiments/de2/materials/stim_files/10.png,,,,2369,,110,3
369,11,1,./static/experiments/de2/materials/stim_files/5.png,./static/experiments/de2/materials/stim_files/6.png,,,,2572,,110,3
370,12,1,./static/experiments/de2/materials/stim_files/13.png,./static/experiments/de2/materials/stim_files/12.png,,,,1955,,110,3
371,13,1,./static/experiments/de2/materials/stim_files/2.png,./static/experiments/de2/materials/stim_files/1.png,,,,2154,,110,3
372,14,1,./static/experiments/de2/materials/stim_files/7.png,./static/experiments/de2/materials/stim_files/6.png,,,,2387,,110,3
373,0,0,./static/experiments/de2/materials/stim_files/12.png,./static/experiments/de2/materials/stim_files/4.png,1,no,1,8055,1.0,48,1
374,1,0,./static/experiments/de2/materials/stim_files/15.png,./static/experiments/de2/materials/stim_files/7.png,1,no,1,4348,1.0,48,1
375,2,0,./static/experiments/de2/materials/stim_files/15.png,./static/experiments/de2/materials/stim_files/14.png,0,yes,1,3943,1.0,48,1
376,3,0,./static/experiments/de2/materials/stim_files/9.png,./static/experiments/de2/materials/stim_files/1.png,1,no,1,2375,1.0,48,1
377,4,0,./static/experiments/de2/materials/stim_files/16.png,./static/experiments/de2/materials/stim_files/8.png,1,no,1,6831,1.0,48,1
378,5,0,./static/experiments/de2/materials/stim_files/3.png,./static/experiments/de2/materials/stim_files/4.png,0,yes,1,1671,1.0,48,1
379,6,0,./static/experiments/de2/materials/stim_files/9.png,./static/experiments/de2/materials/stim_files/8.png,0,yes,1,1731,1.0,48,1
380,7,0,./static/experiments/de2/materials/stim_files/14.png,./static/experiments/de2/materials/stim_files/13.png,0,yes,1,1169,1.0,48,1
381,8,0,./static/experiments/de2/materials/stim_files/12.png,./static/experiments/de2/materials/stim_files/13.png,0,yes,1,2394,1.0,48,1
382,9,0,./static/experiments/de2/materials/stim_files/15.png,./static/experiments/de2/materials/stim_files/7.png,1,no,1,3130,1.0,48,1
383,10,0,./static/experiments/de2/materials/stim_files/4.png,./static/experiments/de2/materials/stim_files/5.png,0,yes,1,6346,1.0,48,1
384,11,0,./static/experiments/de2/materials/stim_files/9.png,./static/experiments/de2/materials/stim_files/10.png,0,yes,1,1380,1.0,48,1
385,12,0,./static/experiments/de2/materials/stim_files/5.png,./static/experiments/de2/materials/stim_files/13.png,1,no,1,1090,1.0,48,1
386,13,0,./static/experiments/de2/materials/stim_files/3.png,./static/experiments/de2/materials/stim_files/11.png,1,no,1,746,1.0,48,1
387,14,0,./static/experiments/de2/materials/stim_files/2.png,./static/experiments/de2/materials/stim_files/3.png,0,yes,1,1082,1.0,48,1
388,15,0,./static/experiments/de2/materials/stim_files/7.png,./static/experiments/de2/materials/stim_files/8.png,0,yes,1,1247,1.0,48,1
389,16,0,./static/experiments/de2/materials/stim_files/16.png,./static/experiments/de2/materials/stim_files/8.png,1,no,1,767,1.0,48,1
390,17,0,./static/experiments/de2/materials/stim_files/7.png,./static/experiments/de2/materials/stim_files/6.png,0,yes,1,1092,1.0,48,1
391,18,0,./static/experiments/de2/materials/stim_files/5.png,./static/experiments/de2/materials/stim_files/6.png,0,no,0,1372,1.0,48,1
392,19,0,./static/experiments/de2/materials/stim_files/1.png,./static/experiments/de2/materials/stim_files/2.png,0,yes,1,3229,1.0,48,1
393,20,0,./static/experiments/de2/materials/stim_files/10.png,./static/experiments/de2/materials/stim_files/11.png,0,yes,1,1003,1.0,48,1
394,21,0,./static/experiments/de2/materials/stim_files/15.png,./static/experiments/de2/materials/stim_files/16.png,0,yes,1,878,1.0,48,1
395,22,0,./static/experiments/de2/materials/stim_files/2.png,./static/experiments/de2/materials/stim_files/10.png,1,no,1,1116,1.0,48,1
396,23,0,./static/experiments/de2/materials/stim_files/6.png,./static/experiments/de2/materials/stim_files/14.png,1,no,1,920,1.0,48,1
397,24,0,./static/experiments/de2/materials/stim_files/12.png,./static/experiments/de2/materials/stim_files/11.png,0,yes,1,1162,1.0,48,1
398,25,0,./static/experiments/de2/materials/stim_files/4.png,./static/experiments/de2/materials/stim_files/12.png,1,no,1,864,1.0,48,1
399,26,0,./static/experiments/de2/materials/stim_files/3.png,./static/experiments/de2/materials/stim_files/11.png,1,no,1,680,1.0,48,1
400,27,0,./static/experiments/de2/materials/stim_files/10.png,./static/experiments/de2/materials/stim_files/2.png,1,yes,0,924,1.0,48,1
401,28,0,./static/experiments/de2/materials/stim_files/5.png,./static/experiments/de2/materials/stim_files/13.png,1,no,1,804,1.0,48,1
402,29,0,./static/experiments/de2/materials/stim_files/9.png,./static/experiments/de2/materials/stim_files/1.png,1,no,1,1123,1.0,48,1
403,30,0,./static/experiments/de2/materials/stim_files/6.png,./static/experiments/de2/materials/stim_files/14.png,1,no,1,796,1.0,48,1
404,0,0,./static/experiments/de2/materials/stim_files/11.png,./static/experiments/de2/materials/stim_files/3.png,1,yes,0,6903,1.0,96,1
405,1,0,./static/experiments/de2/materials/stim_files/3.png,./static/experiments/de2/materials/stim_files/4.png,0,yes,1,1900,1.0,96,1
406,2,0,./static/experiments/de2/materials/stim_files/8.png,./static/experiments/de2/materials/stim_files/9.png,0,yes,1,2063,1.0,96,1
407,3,0,./static/experiments/de2/materials/stim_files/13.png,./static/experiments/de2/materials/stim_files/14.png,0,no,0,1994,1.0,96,1
408,4,0,./static/experiments/de2/materials/stim_files/9.png,./static/experiments/de2/materials/stim_files/10.png,0,yes,1,1510,1.0,96,1
409,5,0,./static/experiments/de2/materials/stim_files/7.png,./static/experiments/de2/materials/stim_files/15.png,1,no,1,1378,1.0,96,1
410,6,0,./static/experiments/de2/materials/stim_files/10.png,./static/experiments/de2/materials/stim_files/11.png,0,yes,1,2076,1.0,96,1
411,7,0,./static/experiments/de2/materials/stim_files/10.png,./static/experiments/de2/materials/stim_files/2.png,1,no,1,3573,1.0,96,1
412,8,0,./static/experiments/de2/materials/stim_files/6.png,./static/experiments/de2/materials/stim_files/14.png,1,no,1,3240,1.0,96,1
413,9,0,./static/experiments/de2/materials/stim_files/9.png,./static/experiments/de2/materials/stim_files/1.png,1,no,1,2040,1.0,96,1
414,10,0,./static/experiments/de2/materials/stim_files/12.png,./static/experiments/de2/materials/stim_files/4.png,1,no,1,1210,1.0,96,1
415,11,0,./static/experiments/de2/materials/stim_files/3.png,./static/experiments/de2/materials/stim_files/2.png,0,yes,1,1247,1.0,96,1
416,12,0,./static/experiments/de2/materials/stim_files/7.png,./static/experiments/de2/materials/stim_files/8.png,0,yes,1,1577,1.0,96,1
417,13,0,./static/experiments/de2/materials/stim_files/11.png,./static/experiments/de2/materials/stim_files/3.png,1,no,1,1382,1.0,96,1
418,14,0,./static/experiments/de2/materials/stim_files/8.png,./static/experiments/de2/materials/stim_files/16.png,1,no,1,1695,1.0,96,1
419,15,0,./static/experiments/de2/materials/stim_files/10.png,./static/experiments/de2/materials/stim_files/2.png,1,no,1,1073,1.0,96,1
420,16,0,./static/experiments/de2/materials/stim_files/6.png,./static/experiments/de2/materials/stim_files/14.png,1,no,1,1511,1.0,96,1
421,17,0,./static/experiments/de2/materials/stim_files/15.png,./static/experiments/de2/materials/stim_files/16.png,0,yes,1,1393,1.0,96,1
422,18,0,./static/experiments/de2/materials/stim_files/4.png,./static/experiments/de2/materials/stim_files/12.png,1,no,1,1284,1.0,96,1
423,19,0,./static/experiments/de2/materials/stim_files/12.png,./static/experiments/de2/materials/stim_files/13.png,0,no,0,2140,1.0,96,1
424,20,0,./static/experiments/de2/materials/stim_files/7.png,./static/experiments/de2/materials/stim_files/6.png,0,yes,1,3772,1.0,96,1
425,21,0,./static/experiments/de2/materials/stim_files/13.png,./static/experiments/de2/materials/stim_files/5.png,1,no,1,1219,1.0,96,1
426,22,0,./static/experiments/de2/materials/stim_files/8.png,./static/experiments/de2/materials/stim_files/16.png,1,no,1,1183,1.0,96,1
427,23,0,./static/experiments/de2/materials/stim_files/2.png,./static/experiments/de2/materials/stim_files/1.png,0,yes,1,1623,1.0,96,1
428,24,0,./static/experiments/de2/materials/stim_files/15.png,./static/experiments/de2/materials/stim_files/14.png,0,yes,1,1550,1.0,96,1
429,25,0,./static/experiments/de2/materials/stim_files/11.png,./static/experiments/de2/materials/stim_files/12.png,0,yes,1,1242,1.0,96,1
430,26,0,./static/experiments/de2/materials/stim_files/15.png,./static/experiments/de2/materials/stim_files/7.png,1,no,1,1288,1.0,96,1
431,27,0,./static/experiments/de2/materials/stim_files/6.png,./static/experiments/de2/materials/stim_files/5.png,0,yes,1,1779,1.0,96,1
432,28,0,./static/experiments/de2/materials/stim_files/1.png,./static/experiments/de2/materials/stim_files/9.png,1,no,1,1250,1.0,96,1
433,29,0,./static/experiments/de2/materials/stim_files/5.png,./static/experiments/de2/materials/stim_files/13.png,1,no,1,913,1.0,96,1
434,30,0,./static/experiments/de2/materials/stim_files/5.png,./static/experiments/de2/materials/stim_files/4.png,0,yes,1,1774,1.0,96,1
435,0,0,./static/experiments/de2/materials/stim_files/3.png,./static/experiments/de2/materials/stim_files/11.png,,,,84,,223,2
436,1,0,./static/experiments/de2/materials/stim_files/14.png,./static/experiments/de2/materials/stim_files/6.png,,,,22960,,223,2
437,2,0,./static/experiments/de2/materials/stim_files/8.png,./static/experiments/de2/materials/stim_files/16.png,,,,3747,,223,2
438,3,0,./static/experiments/de2/materials/stim_files/1.png,./static/experiments/de2/materials/stim_files/9.png,,,,2756,,223,2
439,4,0,./static/experiments/de2/materials/stim_files/7.png,./static/experiments/de2/materials/stim_files/15.png,,,,4390,,223,2
440,5,0,./static/experiments/de2/materials/stim_files/15.png,./static/experiments/de2/materials/stim_files/7.png,,,,1819,,223,2
441,6,0,./static/experiments/de2/materials/stim_files/2.png,./static/experiments/de2/materials/stim_files/10.png,,,,2787,,223,2
442,7,0,./static/experiments/de2/materials/stim_files/14.png,./static/experiments/de2/materials/stim_files/6.png,,,,2010,,223,2
443,8,0,./static/experiments/de2/materials/stim_files/12.png,./static/experiments/de2/materials/stim_files/4.png,,,,2062,,223,2
444,9,0,./static/experiments/de2/materials/stim_files/9.png,./static/experiments/de2/materials/stim_files/1.png,,,,2125,,223,2
445,10,0,./static/experiments/de2/materials/stim_files/16.png,./static/experiments/de2/materials/stim_files/8.png,,,,2209,,223,2
446,11,0,./static/experiments/de2/materials/stim_files/2.png,./static/experiments/de2/materials/stim_files/10.png,,,,2187,,223,2
447,12,0,./static/experiments/de2/materials/stim_files/12.png,./static/experiments/de2/materials/stim_files/4.png,,,,1825,,223,2
448,13,0,./static/experiments/de2/materials/stim_files/13.png,./static/experiments/de2/materials/stim_files/5.png,,,,2134,,223,2
449,14,0,./static/experiments/de2/materials/stim_files/13.png,./static/experiments/de2/materials/stim_files/5.png,,,,2092,,223,2
450,15,0,./static/experiments/de2/materials/stim_files/3.png,./static/experiments/de2/materials/stim_files/11.png,,,,2096,,223,2
451,0,1,./static/experiments/de2/materials/stim_files/3.png,./static/experiments/de2/materials/stim_files/11.png,,,,2096,,223,2
452,1,1,./static/experiments/de2/materials/stim_files/13.png,./static/experiments/de2/materials/stim_files/5.png,,,,2277,,223,2
453,2,1,./static/experiments/de2/materials/stim_files/7.png,./static/experiments/de2/materials/stim_files/15.png,,,,4687,,223,2
454,3,1,./static/experiments/de2/materials/stim_files/12.png,./static/experiments/de2/materials/stim_files/4.png,,,,1895,,223,2
455,4,1,./static/experiments/de2/materials/stim_files/1.png,./static/experiments/de2/materials/stim_files/9.png,,,,2180,,223,2
456,5,1,./static/experiments/de2/materials/stim_files/5.png,./static/experiments/de2/materials/stim_files/13.png,,,,2359,,223,2
457,6,1,./static/experiments/de2/materials/stim_files/2.png,./static/experiments/de2/materials/stim_files/10.png,,,,2658,,223,2
458,7,1,./static/experiments/de2/materials/stim_files/9.png,./static/experiments/de2/materials/stim_files/1.png,,,,20698,,223,2
459,8,1,./static/experiments/de2/materials/stim_files/16.png,./static/experiments/de2/materials/stim_files/8.png,,,,2085,,223,2
460,9,1,./static/experiments/de2/materials/stim_files/6.png,./static/experiments/de2/materials/stim_files/14.png,,,,2101,,223,2
461,10,1,./static/experiments/de2/materials/stim_files/10.png,./static/experiments/de2/materials/stim_files/2.png,,,,2172,,223,2
462,11,1,./static/experiments/de2/materials/stim_files/7.png,./static/experiments/de2/materials/stim_files/15.png,,,,38637,,223,2
463,12,1,./static/experiments/de2/materials/stim_files/3.png,./static/experiments/de2/materials/stim_files/11.png,,,,5040,,223,2
464,13,1,./static/experiments/de2/materials/stim_files/6.png,./static/experiments/de2/materials/stim_files/14.png,,,,2319,,223,2
465,14,1,./static/experiments/de2/materials/stim_files/12.png,./static/experiments/de2/materials/stim_files/4.png,,,,9864,,223,2
466,15,1,./static/experiments/de2/materials/stim_files/16.png,./static/experiments/de2/materials/stim_files/8.png,,,,2257,,223,2
467,0,0,./static/experiments/de2/materials/stim_files/7.png,./static/experiments/de2/materials/stim_files/15.png,,,,14,,247,2
468,1,0,./static/experiments/de2/materials/stim_files/2.png,./static/experiments/de2/materials/stim_files/10.png,,,,6659,,247,2
469,2,0,./static/experiments/de2/materials/stim_files/3.png,./static/experiments/de2/materials/stim_files/11.png,,,,2385,,247,2
470,3,0,./static/experiments/de2/materials/stim_files/3.png,./static/experiments/de2/materials/stim_files/11.png,,,,1951,,247,2
471,4,0,./static/experiments/de2/materials/stim_files/16.png,./static/experiments/de2/materials/stim_files/8.png,,,,5662,,247,2
472,5,0,./static/experiments/de2/materials/stim_files/15.png,./static/experiments/de2/materials/stim_files/7.png,,,,2798,,247,2
473,6,0,./static/experiments/de2/materials/stim_files/5.png,./static/experiments/de2/materials/stim_files/13.png,,,,2335,,247,2
474,7,0,./static/experiments/de2/materials/stim_files/12.png,./static/experiments/de2/materials/stim_files/4.png,,,,2342,,247,2
475,8,0,./static/experiments/de2/materials/stim_files/9.png,./static/experiments/de2/materials/stim_files/1.png,,,,2241,,247,2
476,9,0,./static/experiments/de2/materials/stim_files/1.png,./static/experiments/de2/materials/stim_files/9.png,,,,3929,,247,2
477,10,0,./static/experiments/de2/materials/stim_files/14.png,./static/experiments/de2/materials/stim_files/6.png,,,,2028,,247,2
478,11,0,./static/experiments/de2/materials/stim_files/12.png,./static/experiments/de2/materials/stim_files/4.png,,,,2216,,247,2
479,12,0,./static/experiments/de2/materials/stim_files/16.png,./static/experiments/de2/materials/stim_files/8.png,,,,2170,,247,2
480,13,0,./static/experiments/de2/materials/stim_files/6.png,./static/experiments/de2/materials/stim_files/14.png,,,,3520,,247,2
481,14,0,./static/experiments/de2/materials/stim_files/13.png,./static/experiments/de2/materials/stim_files/5.png,,,,2812,,247,2
482,15,0,./static/experiments/de2/materials/stim_files/10.png,./static/experiments/de2/materials/stim_files/2.png,,,,2405,,247,2
483,0,1,./static/experiments/de2/materials/stim_files/4.png,./static/experiments/de2/materials/stim_files/12.png,,,,3084,,247,2
484,1,1,./static/experiments/de2/materials/stim_files/3.png,./static/experiments/de2/materials/stim_files/11.png,,,,2294,,247,2
485,2,1,./static/experiments/de2/materials/stim_files/13.png,./static/experiments/de2/materials/stim_files/5.png,,,,3757,,247,2
486,3,1,./static/experiments/de2/materials/stim_files/1.png,./static/experiments/de2/materials/stim_files/9.png,,,,2648,,247,2
487,4,1,./static/experiments/de2/materials/stim_files/15.png,./static/experiments/de2/materials/stim_files/7.png,,,,2643,,247,2
488,5,1,./static/experiments/de2/materials/stim_files/16.png,./static/experiments/de2/materials/stim_files/8.png,,,,2279,,247,2
489,6,1,./static/experiments/de2/materials/stim_files/11.png,./static/experiments/de2/materials/stim_files/3.png,,,,2181,,247,2
490,7,1,./static/experiments/de2/materials/stim_files/2.png,./static/experiments/de2/materials/stim_files/10.png,,,,3585,,247,2
491,8,1,./static/experiments/de2/materials/stim_files/12.png,./static/experiments/de2/materials/stim_files/4.png,,,,2163,,247,2
492,9,1,./static/experiments/de2/materials/stim_files/9.png,./static/experiments/de2/materials/stim_files/1.png,,,,2404,,247,2
493,10,1,./static/experiments/de2/materials/stim_files/14.png,./static/experiments/de2/materials/stim_files/6.png,,,,4213,,247,2
494,11,1,./static/experiments/de2/materials/stim_files/15.png,./static/experiments/de2/materials/stim_files/7.png,,,,3965,,247,2
495,12,1,./static/experiments/de2/materials/stim_files/10.png,./static/experiments/de2/materials/stim_files/2.png,,,,2086,,247,2
496,13,1,./static/experiments/de2/materials/stim_files/16.png,./static/experiments/de2/materials/stim_files/8.png,,,,2107,,247,2
497,14,1,./static/experiments/de2/materials/stim_files/5.png,./static/experiments/de2/materials/stim_files/13.png,,,,2437,,247,2
498,15,1,./static/experiments/de2/materials/stim_files/14.png,./static/experiments/de2/materials/stim_files/6.png,,,,2693,,247,2
499,0,0,./static/experiments/de2/materials/stim_files/12.png,./static/experiments/de2/materials/stim_files/11.png,,,,11,,122,3
500,1,0,./static/experiments/de2/materials/stim_files/3.png,./static/experiments/de2/materials/stim_files/2.png,,,,32647,,122,3
501,2,0,./static/experiments/de2/materials/stim_files/10.png,./static/experiments/de2/materials/stim_files/9.png,,,,4324,,122,3
502,3,0,./static/experiments/de2/materials/stim_files/7.png,./static/experiments/de2/materials/stim_files/6.png,,,,2831,,122,3
503,4,0,./static/experiments/de2/materials/stim_files/13.png,./static/experiments/de2/materials/stim_files/14.png,,,,6948,,122,3
504,5,0,./static/experiments/de2/materials/stim_files/6.png,./static/experiments/de2/materials/stim_files/5.png,,,,2793,,122,3
505,6,0,./static/experiments/de2/materials/stim_files/4.png,./static/experiments/de2/materials/stim_files/5.png,,,,4082,,122,3
506,7,0,./static/experiments/de2/materials/stim_files/12.png,./static/experiments/de2/materials/stim_files/13.png,,,,2579,,122,3
507,8,0,./static/experiments/de2/materials/stim_files/2.png,./static/experiments/de2/materials/stim_files/1.png,,,,4232,,122,3
508,9,0,./static/experiments/de2/materials/stim_files/8.png,./static/experiments/de2/materials/stim_files/9.png,,,,2103,,122,3
509,10,0,./static/experiments/de2/materials/stim_files/16.png,./static/experiments/de2/materials/stim_files/15.png,,,,2672,,122,3
510,11,0,./static/experiments/de2/materials/stim_files/15.png,./static/experiments/de2/materials/stim_files/14.png,,,,6499,,122,3
511,12,0,./static/experiments/de2/materials/stim_files/7.png,./static/experiments/de2/materials/stim_files/8.png,,,,8385,,122,3
512,13,0,./static/experiments/de2/materials/stim_files/3.png,./static/experiments/de2/materials/stim_files/4.png,,,,2878,,122,3
513,14,0,./static/experiments/de2/materials/stim_files/10.png,./static/experiments/de2/materials/stim_files/11.png,,,,2297,,122,3
514,0,1,./static/experiments/de2/materials/stim_files/13.png,./static/experiments/de2/materials/stim_files/12.png,,,,2665,,122,3
515,1,1,./static/experiments/de2/materials/stim_files/7.png,./static/experiments/de2/materials/stim_files/6.png,,,,2601,,122,3
516,2,1,./static/experiments/de2/materials/stim_files/4.png,./static/experiments/de2/materials/stim_files/3.png,,,,2734,,122,3
517,3,1,./static/experiments/de2/materials/stim_files/2.png,./static/experiments/de2/materials/stim_files/3.png,,,,3564,,122,3
518,4,1,./static/experiments/de2/materials/stim_files/2.png,./static/experiments/de2/materials/stim_files/1.png,,,,2457,,122,3
519,5,1,./static/experiments/de2/materials/stim_files/12.png,./static/experiments/de2/materials/stim_files/11.png,,,,2502,,122,3
520,6,1,./static/experiments/de2/materials/stim_files/9.png,./static/experiments/de2/materials/stim_files/8.png,,,,3143,,122,3
521,7,1,./static/experiments/de2/materials/stim_files/8.png,./static/experiments/de2/materials/stim_files/7.png,,,,2902,,122,3
522,8,1,./static/experiments/de2/materials/stim_files/14.png,./static/experiments/de2/materials/stim_files/13.png,,,,2735,,122,3
523,9,1,./static/experiments/de2/materials/stim_files/10.png,./static/experiments/de2/materials/stim_files/9.png,,,,2592,,122,3
524,10,1,./static/experiments/de2/materials/stim_files/6.png,./static/experiments/de2/materials/stim_files/5.png,,,,2482,,122,3
525,11,1,./static/experiments/de2/materials/stim_files/16.png,./static/experiments/de2/materials/stim_files/15.png,,,,2462,,122,3
526,12,1,./static/experiments/de2/materials/stim_files/4.png,./static/experiments/de2/materials/stim_files/5.png,,,,2697,,122,3
527,13,1,./static/experiments/de2/materials/stim_files/11.png,./static/experiments/de2/materials/stim_files/10.png,,,,2398,,122,3
528,14,1,./static/experiments/de2/materials/stim_files/14.png,./static/experiments/de2/materials/stim_files/15.png,,,,2363,,122,3
529,0,0,./static/experiments/de2/materials/stim_files/11.png,./static/experiments/de2/materials/stim_files/3.png,,,,10,,210,2
530,1,0,./static/experiments/de2/materials/stim_files/10.png,./static/experiments/de2/materials/stim_files/2.png,,,,18376,,210,2
531,2,0,./static/experiments/de2/materials/stim_files/14.png,./static/experiments/de2/materials/stim_files/6.png,,,,8220,,210,2
532,3,0,./static/experiments/de2/materials/stim_files/4.png,./static/experiments/de2/materials/stim_files/12.png,,,,9414,,210,2
533,4,0,./static/experiments/de2/materials/stim_files/10.png,./static/experiments/de2/materials/stim_files/2.png,,,,4690,,210,2
534,5,0,./static/experiments/de2/materials/stim_files/1.png,./static/experiments/de2/materials/stim_files/9.png,,,,8803,,210,2
535,6,0,./static/experiments/de2/materials/stim_files/12.png,./static/experiments/de2/materials/stim_files/4.png,,,,13460,,210,2
536,7,0,./static/experiments/de2/materials/stim_files/6.png,./static/experiments/de2/materials/stim_files/14.png,,,,11979,,210,2
537,8,0,./static/experiments/de2/materials/stim_files/16.png,./static/experiments/de2/materials/stim_files/8.png,,,,5073,,210,2
538,9,0,./static/experiments/de2/materials/stim_files/11.png,./static/experiments/de2/materials/stim_files/3.png,,,,4786,,210,2
539,10,0,./static/experiments/de2/materials/stim_files/5.png,./static/experiments/de2/materials/stim_files/13.png,,,,6288,,210,2
540,11,0,./static/experiments/de2/materials/stim_files/15.png,./static/experiments/de2/materials/stim_files/7.png,,,,4250,,210,2
541,12,0,./static/experiments/de2/materials/stim_files/13.png,./static/experiments/de2/materials/stim_files/5.png,,,,3989,,210,2
542,13,0,./static/experiments/de2/materials/stim_files/1.png,./static/experiments/de2/materials/stim_files/9.png,,,,2505,,210,2
543,14,0,./static/experiments/de2/materials/stim_files/7.png,./static/experiments/de2/materials/stim_files/15.png,,,,3528,,210,2
544,15,0,./static/experiments/de2/materials/stim_files/8.png,./static/experiments/de2/materials/stim_files/16.png,,,,5418,,210,2
545,0,1,./static/experiments/de2/materials/stim_files/6.png,./static/experiments/de2/materials/stim_files/14.png,,,,2840,,210,2
546,1,1,./static/experiments/de2/materials/stim_files/10.png,./static/experiments/de2/materials/stim_files/2.png,,,,3324,,210,2
547,2,1,./static/experiments/de2/materials/stim_files/12.png,./static/experiments/de2/materials/stim_files/4.png,,,,4839,,210,2
548,3,1,./static/experiments/de2/materials/stim_files/10.png,./static/experiments/de2/materials/stim_files/2.png,,,,2656,,210,2
549,4,1,./static/experiments/de2/materials/stim_files/15.png,./static/experiments/de2/materials/stim_files/7.png,,,,3268,,210,2
550,5,1,./static/experiments/de2/materials/stim_files/11.png,./static/experiments/de2/materials/stim_files/3.png,,,,3479,,210,2
551,6,1,./static/experiments/de2/materials/stim_files/8.png,./static/experiments/de2/materials/stim_files/16.png,,,,2344,,210,2
552,7,1,./static/experiments/de2/materials/stim_files/1.png,./static/experiments/de2/materials/stim_files/9.png,,,,4198,,210,2
553,8,1,./static/experiments/de2/materials/stim_files/12.png,./static/experiments/de2/materials/stim_files/4.png,,,,2331,,210,2
554,9,1,./static/experiments/de2/materials/stim_files/8.png,./static/experiments/de2/materials/stim_files/16.png,,,,2362,,210,2
555,10,1,./static/experiments/de2/materials/stim_files/13.png,./static/experiments/de2/materials/stim_files/5.png,,,,2643,,210,2
556,11,1,./static/experiments/de2/materials/stim_files/5.png,./static/experiments/de2/materials/stim_files/13.png,,,,2734,,210,2
557,12,1,./static/experiments/de2/materials/stim_files/15.png,./static/experiments/de2/materials/stim_files/7.png,,,,2241,,210,2
558,13,1,./static/experiments/de2/materials/stim_files/6.png,./static/experiments/de2/materials/stim_files/14.png,,,,3138,,210,2
559,14,1,./static/experiments/de2/materials/stim_files/1.png,./static/experiments/de2/materials/stim_files/9.png,,,,2728,,210,2
560,15,1,./static/experiments/de2/materials/stim_files/3.png,./static/experiments/de2/materials/stim_files/11.png,,,,4350,,210,2
561,0,0,./static/experiments/de2/materials/stim_files/10.png,./static/experiments/de2/materials/stim_files/11.png,0,yes,1,13534,1.0,225,1
562,1,0,./static/experiments/de2/materials/stim_files/6.png,./static/experiments/de2/materials/stim_files/5.png,0,yes,1,2073,1.0,225,1
563,2,0,./static/experiments/de2/materials/stim_files/14.png,./static/experiments/de2/materials/stim_files/6.png,1,no,1,1513,1.0,225,1
564,3,0,./static/experiments/de2/materials/stim_files/2.png,./static/experiments/de2/materials/stim_files/10.png,1,no,1,1165,1.0,225,1
565,4,0,./static/experiments/de2/materials/stim_files/1.png,./static/experiments/de2/materials/stim_files/9.png,1,no,1,1431,1.0,225,1
566,5,0,./static/experiments/de2/materials/stim_files/8.png,./static/experiments/de2/materials/stim_files/7.png,0,yes,1,822,1.0,225,1
567,6,0,./static/experiments/de2/materials/stim_files/16.png,./static/experiments/de2/materials/stim_files/8.png,1,no,1,2194,1.0,225,1
568,7,0,./static/experiments/de2/materials/stim_files/15.png,./static/experiments/de2/materials/stim_files/16.png,0,yes,1,1050,1.0,225,1
569,8,0,./static/experiments/de2/materials/stim_files/10.png,./static/experiments/de2/materials/stim_files/2.png,1,no,1,1607,1.0,225,1
570,9,0,./static/experiments/de2/materials/stim_files/2.png,./static/experiments/de2/materials/stim_files/3.png,0,yes,1,1163,1.0,225,1
571,10,0,./static/experiments/de2/materials/stim_files/4.png,./static/experiments/de2/materials/stim_files/5.png,0,yes,1,878,1.0,225,1
572,11,0,./static/experiments/de2/materials/stim_files/7.png,./static/experiments/de2/materials/stim_files/15.png,1,no,1,729,1.0,225,1
573,12,0,./static/experiments/de2/materials/stim_files/7.png,./static/experiments/de2/materials/stim_files/6.png,0,yes,1,1342,1.0,225,1
574,13,0,./static/experiments/de2/materials/stim_files/3.png,./static/experiments/de2/materials/stim_files/11.png,1,no,1,2424,1.0,225,1
575,14,0,./static/experiments/de2/materials/stim_files/13.png,./static/experiments/de2/materials/stim_files/14.png,0,yes,1,1078,1.0,225,1
576,15,0,./static/experiments/de2/materials/stim_files/4.png,./static/experiments/de2/materials/stim_files/12.png,1,no,1,1082,1.0,225,1
577,16,0,./static/experiments/de2/materials/stim_files/13.png,./static/experiments/de2/materials/stim_files/5.png,1,no,1,937,1.0,225,1
578,17,0,./static/experiments/de2/materials/stim_files/12.png,./static/experiments/de2/materials/stim_files/13.png,0,yes,1,504,1.0,225,1
579,18,0,./static/experiments/de2/materials/stim_files/5.png,./static/experiments/de2/materials/stim_files/13.png,1,no,1,492,1.0,225,1
580,19,0,./static/experiments/de2/materials/stim_files/12.png,./static/experiments/de2/materials/stim_files/11.png,0,yes,1,477,1.0,225,1
581,20,0,./static/experiments/de2/materials/stim_files/9.png,./static/experiments/de2/materials/stim_files/8.png,0,yes,1,1031,1.0,225,1
582,21,0,./static/experiments/de2/materials/stim_files/10.png,./static/experiments/de2/materials/stim_files/9.png,0,yes,1,642,1.0,225,1
583,22,0,./static/experiments/de2/materials/stim_files/12.png,./static/experiments/de2/materials/stim_files/4.png,1,no,1,555,1.0,225,1
584,23,0,./static/experiments/de2/materials/stim_files/3.png,./static/experiments/de2/materials/stim_files/11.png,1,no,1,568,1.0,225,1
585,24,0,./static/experiments/de2/materials/stim_files/2.png,./static/experiments/de2/materials/stim_files/1.png,0,yes,1,599,1.0,225,1
586,25,0,./static/experiments/de2/materials/stim_files/9.png,./static/experiments/de2/materials/stim_files/1.png,1,no,1,1043,1.0,225,1
587,26,0,./static/experiments/de2/materials/stim_files/14.png,./static/experiments/de2/materials/stim_files/6.png,1,no,1,2043,1.0,225,1
588,27,0,./static/experiments/de2/materials/stim_files/7.png,./static/experiments/de2/materials/stim_files/15.png,1,no,1,1130,1.0,225,1
589,28,0,./static/experiments/de2/materials/stim_files/15.png,./static/experiments/de2/materials/stim_files/14.png,0,yes,1,574,1.0,225,1
590,29,0,./static/experiments/de2/materials/stim_files/8.png,./static/experiments/de2/materials/stim_files/16.png,1,no,1,735,1.0,225,1
591,30,0,./static/experiments/de2/materials/stim_files/3.png,./static/experiments/de2/materials/stim_files/4.png,0,yes,1,743,1.0,225,1
592,0,0,./static/experiments/de2/materials/stim_files/13.png,./static/experiments/de2/materials/stim_files/14.png,,,,23,,115,3
593,1,0,./static/experiments/de2/materials/stim_files/13.png,./static/experiments/de2/materials/stim_files/12.png,,,,9837,,115,3
594,2,0,./static/experiments/de2/materials/stim_files/10.png,./static/experiments/de2/materials/stim_files/11.png,,,,4073,,115,3
595,3,0,./static/experiments/de2/materials/stim_files/4.png,./static/experiments/de2/materials/stim_files/5.png,,,,2381,,115,3
596,4,0,./static/experiments/de2/materials/stim_files/6.png,./static/experiments/de2/materials/stim_files/5.png,,,,2389,,115,3
597,5,0,./static/experiments/de2/materials/stim_files/14.png,./static/experiments/de2/materials/stim_files/15.png,,,,1910,,115,3
598,6,0,./static/experiments/de2/materials/stim_files/7.png,./static/experiments/de2/materials/stim_files/8.png,,,,2245,,115,3
599,7,0,./static/experiments/de2/materials/stim_files/11.png,./static/experiments/de2/materials/stim_files/12.png,,,,2155,,115,3
600,8,0,./static/experiments/de2/materials/stim_files/8.png,./static/experiments/de2/materials/stim_files/9.png,,,,2290,,115,3
601,9,0,./static/experiments/de2/materials/stim_files/15.png,./static/experiments/de2/materials/stim_files/16.png,,,,2167,,115,3
602,10,0,./static/experiments/de2/materials/stim_files/7.png,./static/experiments/de2/materials/stim_files/6.png,,,,2164,,115,3
603,11,0,./static/experiments/de2/materials/stim_files/2.png,./static/experiments/de2/materials/stim_files/1.png,,,,2225,,115,3
604,12,0,./static/experiments/de2/materials/stim_files/2.png,./static/experiments/de2/materials/stim_files/3.png,,,,2267,,115,3
605,13,0,./static/experiments/de2/materials/stim_files/9.png,./static/experiments/de2/materials/stim_files/10.png,,,,2188,,115,3
606,14,0,./static/experiments/de2/materials/stim_files/3.png,./static/experiments/de2/materials/stim_files/4.png,,,,1922,,115,3
607,0,1,./static/experiments/de2/materials/stim_files/7.png,./static/experiments/de2/materials/stim_files/6.png,,,,1923,,115,3
608,1,1,./static/experiments/de2/materials/stim_files/9.png,./static/experiments/de2/materials/stim_files/10.png,,,,1880,,115,3
609,2,1,./static/experiments/de2/materials/stim_files/13.png,./static/experiments/de2/materials/stim_files/12.png,,,,1837,,115,3
610,3,1,./static/experiments/de2/materials/stim_files/15.png,./static/experiments/de2/materials/stim_files/16.png,,,,1922,,115,3
611,4,1,./static/experiments/de2/materials/stim_files/6.png,./static/experiments/de2/materials/stim_files/5.png,,,,1860,,115,3
612,5,1,./static/experiments/de2/materials/stim_files/15.png,./static/experiments/de2/materials/stim_files/14.png,,,,1952,,115,3
613,6,1,./static/experiments/de2/materials/stim_files/9.png,./static/experiments/de2/materials/stim_files/8.png,,,,1961,,115,3
614,7,1,./static/experiments/de2/materials/stim_files/10.png,./static/experiments/de2/materials/stim_files/11.png,,,,1785,,115,3
615,8,1,./static/experiments/de2/materials/stim_files/5.png,./static/experiments/de2/materials/stim_files/4.png,,,,2542,,115,3
616,9,1,./static/experiments/de2/materials/stim_files/14.png,./static/experiments/de2/materials/stim_files/13.png,,,,1848,,115,3
617,10,1,./static/experiments/de2/materials/stim_files/2.png,./static/experiments/de2/materials/stim_files/3.png,,,,1843,,115,3
618,11,1,./static/experiments/de2/materials/stim_files/7.png,./static/experiments/de2/materials/stim_files/8.png,,,,1822,,115,3
619,12,1,./static/experiments/de2/materials/stim_files/3.png,./static/experiments/de2/materials/stim_files/4.png,,,,1999,,115,3
620,13,1,./static/experiments/de2/materials/stim_files/2.png,./static/experiments/de2/materials/stim_files/1.png,,,,1879,,115,3
621,14,1,./static/experiments/de2/materials/stim_files/12.png,./static/experiments/de2/materials/stim_files/11.png,,,,1843,,115,3
622,0,0,./static/experiments/de2/materials/stim_files/3.png,./static/experiments/de2/materials/stim_files/4.png,0,no,1,10649,0.0,172,1
623,1,0,./static/experiments/de2/materials/stim_files/7.png,./static/experiments/de2/materials/stim_files/15.png,1,no,0,2936,0.0,172,1
624,2,0,./static/experiments/de2/materials/stim_files/10.png,./static/experiments/de2/materials/stim_files/2.png,1,yes,1,2051,0.0,172,1
625,3,0,./static/experiments/de2/materials/stim_files/1.png,./static/experiments/de2/materials/stim_files/9.png,1,yes,1,1650,0.0,172,1
626,4,0,./static/experiments/de2/materials/stim_files/2.png,./static/experiments/de2/materials/stim_files/3.png,0,no,1,1502,0.0,172,1
627,5,0,./static/experiments/de2/materials/stim_files/12.png,./static/experiments/de2/materials/stim_files/4.png,1,yes,1,810,0.0,172,1
628,6,0,./static/experiments/de2/materials/stim_files/16.png,./static/experiments/de2/materials/stim_files/8.png,1,no,0,4650,0.0,172,1
629,7,0,./static/experiments/de2/materials/stim_files/3.png,./static/experiments/de2/materials/stim_files/11.png,1,yes,1,1301,0.0,172,1
630,8,0,./static/experiments/de2/materials/stim_files/13.png,./static/experiments/de2/materials/stim_files/12.png,0,no,1,1395,0.0,172,1
631,9,0,./static/experiments/de2/materials/stim_files/6.png,./static/experiments/de2/materials/stim_files/5.png,0,no,1,977,0.0,172,1
632,10,0,./static/experiments/de2/materials/stim_files/4.png,./static/experiments/de2/materials/stim_files/5.png,0,no,1,585,0.0,172,1
633,11,0,./static/experiments/de2/materials/stim_files/13.png,./static/experiments/de2/materials/stim_files/14.png,0,no,1,875,0.0,172,1
634,12,0,./static/experiments/de2/materials/stim_files/14.png,./static/experiments/de2/materials/stim_files/6.png,1,yes,1,642,0.0,172,1
635,13,0,./static/experiments/de2/materials/stim_files/2.png,./static/experiments/de2/materials/stim_files/10.png,1,yes,1,643,0.0,172,1
636,14,0,./static/experiments/de2/materials/stim_files/16.png,./static/experiments/de2/materials/stim_files/15.png,0,no,1,612,0.0,172,1
637,15,0,./static/experiments/de2/materials/stim_files/13.png,./static/experiments/de2/materials/stim_files/5.png,1,yes,1,656,0.0,172,1
638,16,0,./static/experiments/de2/materials/stim_files/12.png,./static/experiments/de2/materials/stim_files/11.png,0,no,1,617,0.0,172,1
639,17,0,./static/experiments/de2/materials/stim_files/8.png,./static/experiments/de2/materials/stim_files/16.png,1,yes,1,629,0.0,172,1
640,18,0,./static/experiments/de2/materials/stim_files/14.png,./static/experiments/de2/materials/stim_files/15.png,0,no,1,487,0.0,172,1
641,19,0,./static/experiments/de2/materials/stim_files/1.png,./static/experiments/de2/materials/stim_files/9.png,1,yes,1,514,0.0,172,1
642,20,0,./static/experiments/de2/materials/stim_files/11.png,./static/experiments/de2/materials/stim_files/10.png,0,no,1,461,0.0,172,1
643,21,0,./static/experiments/de2/materials/stim_files/10.png,./static/experiments/de2/materials/stim_files/9.png,0,no,1,505,0.0,172,1
644,22,0,./static/experiments/de2/materials/stim_files/3.png,./static/experiments/de2/materials/stim_files/11.png,1,yes,1,434,0.0,172,1
645,23,0,./static/experiments/de2/materials/stim_files/8.png,./static/experiments/de2/materials/stim_files/7.png,0,no,1,473,0.0,172,1
646,24,0,./static/experiments/de2/materials/stim_files/6.png,./static/experiments/de2/materials/stim_files/14.png,1,yes,1,439,0.0,172,1
647,25,0,./static/experiments/de2/materials/stim_files/4.png,./static/experiments/de2/materials/stim_files/12.png,1,yes,1,487,0.0,172,1
648,26,0,./static/experiments/de2/materials/stim_files/15.png,./static/experiments/de2/materials/stim_files/7.png,1,no,0,476,0.0,172,1
649,27,0,./static/experiments/de2/materials/stim_files/1.png,./static/experiments/de2/materials/stim_files/2.png,0,no,1,530,0.0,172,1
650,28,0,./static/experiments/de2/materials/stim_files/8.png,./static/experiments/de2/materials/stim_files/9.png,0,no,1,499,0.0,172,1
651,29,0,./static/experiments/de2/materials/stim_files/7.png,./static/experiments/de2/materials/stim_files/6.png,0,no,1,497,0.0,172,1
652,30,0,./static/experiments/de2/materials/stim_files/13.png,./static/experiments/de2/materials/stim_files/5.png,1,yes,1,482,0.0,172,1
653,0,0,./static/experiments/de2/materials/stim_files/14.png,./static/experiments/de2/materials/stim_files/15.png,,,,8,,95,3
654,1,0,./static/experiments/de2/materials/stim_files/8.png,./static/experiments/de2/materials/stim_files/9.png,,,,8702,,95,3
655,2,0,./static/experiments/de2/materials/stim_files/2.png,./static/experiments/de2/materials/stim_files/3.png,,,,5039,,95,3
656,3,0,./static/experiments/de2/materials/stim_files/16.png,./static/experiments/de2/materials/stim_files/15.png,,,,2885,,95,3
657,4,0,./static/experiments/de2/materials/stim_files/12.png,./static/experiments/de2/materials/stim_files/11.png,,,,5103,,95,3
658,5,0,./static/experiments/de2/materials/stim_files/6.png,./static/experiments/de2/materials/stim_files/5.png,,,,3950,,95,3
659,6,0,./static/experiments/de2/materials/stim_files/7.png,./static/experiments/de2/materials/stim_files/6.png,,,,2454,,95,3
660,7,0,./static/experiments/de2/materials/stim_files/13.png,./static/experiments/de2/materials/stim_files/12.png,,,,3229,,95,3
661,8,0,./static/experiments/de2/materials/stim_files/13.png,./static/experiments/de2/materials/stim_files/14.png,,,,4841,,95,3
662,9,0,./static/experiments/de2/materials/stim_files/10.png,./static/experiments/de2/materials/stim_files/9.png,,,,3838,,95,3
663,10,0,./static/experiments/de2/materials/stim_files/5.png,./static/experiments/de2/materials/stim_files/4.png,,,,2968,,95,3
664,11,0,./static/experiments/de2/materials/stim_files/4.png,./static/experiments/de2/materials/stim_files/3.png,,,,2615,,95,3
665,12,0,./static/experiments/de2/materials/stim_files/10.png,./static/experiments/de2/materials/stim_files/11.png,,,,3303,,95,3
666,13,0,./static/experiments/de2/materials/stim_files/7.png,./static/experiments/de2/materials/stim_files/8.png,,,,2845,,95,3
667,14,0,./static/experiments/de2/materials/stim_files/2.png,./static/experiments/de2/materials/stim_files/1.png,,,,2907,,95,3
668,0,1,./static/experiments/de2/materials/stim_files/12.png,./static/experiments/de2/materials/stim_files/13.png,,,,5134,,95,3
669,1,1,./static/experiments/de2/materials/stim_files/8.png,./static/experiments/de2/materials/stim_files/7.png,,,,3277,,95,3
670,2,1,./static/experiments/de2/materials/stim_files/2.png,./static/experiments/de2/materials/stim_files/3.png,,,,3446,,95,3
671,3,1,./static/experiments/de2/materials/stim_files/10.png,./static/experiments/de2/materials/stim_files/11.png,,,,3527,,95,3
672,4,1,./static/experiments/de2/materials/stim_files/4.png,./static/experiments/de2/materials/stim_files/5.png,,,,3476,,95,3
673,5,1,./static/experiments/de2/materials/stim_files/10.png,./static/experiments/de2/materials/stim_files/9.png,,,,3293,,95,3
674,6,1,./static/experiments/de2/materials/stim_files/6.png,./static/experiments/de2/materials/stim_files/7.png,,,,2923,,95,3
675,7,1,./static/experiments/de2/materials/stim_files/2.png,./static/experiments/de2/materials/stim_files/1.png,,,,2722,,95,3
676,8,1,./static/experiments/de2/materials/stim_files/15.png,./static/experiments/de2/materials/stim_files/16.png,,,,2677,,95,3
677,9,1,./static/experiments/de2/materials/stim_files/12.png,./static/experiments/de2/materials/stim_files/11.png,,,,2877,,95,3
678,10,1,./static/experiments/de2/materials/stim_files/15.png,./static/experiments/de2/materials/stim_files/14.png,,,,3127,,95,3
679,11,1,./static/experiments/de2/materials/stim_files/8.png,./static/experiments/de2/materials/stim_files/9.png,,,,4943,,95,3
680,12,1,./static/experiments/de2/materials/stim_files/13.png,./static/experiments/de2/materials/stim_files/14.png,,,,3047,,95,3
681,13,1,./static/experiments/de2/materials/stim_files/4.png,./static/experiments/de2/materials/stim_files/3.png,,,,2048,,95,3
682,14,1,./static/experiments/de2/materials/stim_files/5.png,./static/experiments/de2/materials/stim_files/6.png,,,,12179,,95,3
683,0,0,./static/experiments/de2/materials/stim_files/14.png,./static/experiments/de2/materials/stim_files/13.png,0,yes,0,6473,0.0,141,1
684,1,0,./static/experiments/de2/materials/stim_files/15.png,./static/experiments/de2/materials/stim_files/7.png,1,no,0,1303,0.0,141,1
685,2,0,./static/experiments/de2/materials/stim_files/12.png,./static/experiments/de2/materials/stim_files/11.png,0,no,1,2723,0.0,141,1
686,3,0,./static/experiments/de2/materials/stim_files/10.png,./static/experiments/de2/materials/stim_files/2.png,1,yes,1,744,0.0,141,1
687,4,0,./static/experiments/de2/materials/stim_files/9.png,./static/experiments/de2/materials/stim_files/8.png,0,no,1,760,0.0,141,1
688,5,0,./static/experiments/de2/materials/stim_files/14.png,./static/experiments/de2/materials/stim_files/6.png,1,yes,1,778,0.0,141,1
689,6,0,./static/experiments/de2/materials/stim_files/7.png,./static/experiments/de2/materials/stim_files/15.png,1,yes,1,774,0.0,141,1
690,7,0,./static/experiments/de2/materials/stim_files/6.png,./static/experiments/de2/materials/stim_files/7.png,0,no,1,671,0.0,141,1
691,8,0,./static/experiments/de2/materials/stim_files/6.png,./static/experiments/de2/materials/stim_files/5.png,0,no,1,810,0.0,141,1
692,9,0,./static/experiments/de2/materials/stim_files/11.png,./static/experiments/de2/materials/stim_files/3.png,1,yes,1,621,0.0,141,1
693,10,0,./static/experiments/de2/materials/stim_files/11.png,./static/experiments/de2/materials/stim_files/10.png,0,no,1,593,0.0,141,1
694,11,0,./static/experiments/de2/materials/stim_files/15.png,./static/experiments/de2/materials/stim_files/14.png,0,no,1,748,0.0,141,1
695,12,0,./static/experiments/de2/materials/stim_files/9.png,./static/experiments/de2/materials/stim_files/10.png,0,no,1,728,0.0,141,1
696,13,0,./static/experiments/de2/materials/stim_files/9.png,./static/experiments/de2/materials/stim_files/1.png,1,yes,1,609,0.0,141,1
697,14,0,./static/experiments/de2/materials/stim_files/4.png,./static/experiments/de2/materials/stim_files/12.png,1,yes,1,1689,0.0,141,1
698,15,0,./static/experiments/de2/materials/stim_files/4.png,./static/experiments/de2/materials/stim_files/3.png,0,no,1,665,0.0,141,1
699,16,0,./static/experiments/de2/materials/stim_files/13.png,./static/experiments/de2/materials/stim_files/5.png,1,yes,1,661,0.0,141,1
700,17,0,./static/experiments/de2/materials/stim_files/10.png,./static/experiments/de2/materials/stim_files/2.png,1,yes,1,499,0.0,141,1
701,18,0,./static/experiments/de2/materials/stim_files/3.png,./static/experiments/de2/materials/stim_files/11.png,1,yes,1,519,0.0,141,1
702,19,0,./static/experiments/de2/materials/stim_files/13.png,./static/experiments/de2/materials/stim_files/12.png,0,no,1,504,0.0,141,1
703,20,0,./static/experiments/de2/materials/stim_files/2.png,./static/experiments/de2/materials/stim_files/3.png,0,yes,0,530,0.0,141,1
704,21,0,./static/experiments/de2/materials/stim_files/8.png,./static/experiments/de2/materials/stim_files/16.png,1,yes,1,2755,0.0,141,1
705,22,0,./static/experiments/de2/materials/stim_files/14.png,./static/experiments/de2/materials/stim_files/6.png,1,yes,1,574,0.0,141,1
706,23,0,./static/experiments/de2/materials/stim_files/5.png,./static/experiments/de2/materials/stim_files/4.png,0,no,1,608,0.0,141,1
707,24,0,./static/experiments/de2/materials/stim_files/4.png,./static/experiments/de2/materials/stim_files/12.png,1,yes,1,1271,0.0,141,1
708,25,0,./static/experiments/de2/materials/stim_files/16.png,./static/experiments/de2/materials/stim_files/15.png,0,no,1,654,0.0,141,1
709,26,0,./static/experiments/de2/materials/stim_files/9.png,./static/experiments/de2/materials/stim_files/1.png,1,yes,1,727,0.0,141,1
710,27,0,./static/experiments/de2/materials/stim_files/1.png,./static/experiments/de2/materials/stim_files/2.png,0,no,1,676,0.0,141,1
711,28,0,./static/experiments/de2/materials/stim_files/7.png,./static/experiments/de2/materials/stim_files/8.png,0,no,1,2913,0.0,141,1
712,29,0,./static/experiments/de2/materials/stim_files/5.png,./static/experiments/de2/materials/stim_files/13.png,1,yes,1,602,0.0,141,1
713,30,0,./static/experiments/de2/materials/stim_files/8.png,./static/experiments/de2/materials/stim_files/16.png,1,yes,1,1067,0.0,141,1
714,0,0,./static/experiments/de2/materials/stim_files/15.png,./static/experiments/de2/materials/stim_files/14.png,,,,16,,188,3
715,1,0,./static/experiments/de2/materials/stim_files/14.png,./static/experiments/de2/materials/stim_files/13.png,,,,18240,,188,3
716,2,0,./static/experiments/de2/materials/stim_files/12.png,./static/experiments/de2/materials/stim_files/11.png,,,,3712,,188,3
717,3,0,./static/experiments/de2/materials/stim_files/11.png,./static/experiments/de2/materials/stim_files/10.png,,,,3793,,188,3
718,4,0,./static/experiments/de2/materials/stim_files/1.png,./static/experiments/de2/materials/stim_files/2.png,,,,2402,,188,3
719,5,0,./static/experiments/de2/materials/stim_files/15.png,./static/experiments/de2/materials/stim_files/16.png,,,,2956,,188,3
720,6,0,./static/experiments/de2/materials/stim_files/13.png,./static/experiments/de2/materials/stim_files/12.png,,,,2451,,188,3
721,7,0,./static/experiments/de2/materials/stim_files/6.png,./static/experiments/de2/materials/stim_files/7.png,,,,2165,,188,3
722,8,0,./static/experiments/de2/materials/stim_files/3.png,./static/experiments/de2/materials/stim_files/2.png,,,,2461,,188,3
723,9,0,./static/experiments/de2/materials/stim_files/5.png,./static/experiments/de2/materials/stim_files/4.png,,,,2429,,188,3
724,10,0,./static/experiments/de2/materials/stim_files/9.png,./static/experiments/de2/materials/stim_files/10.png,,,,2088,,188,3
725,11,0,./static/experiments/de2/materials/stim_files/6.png,./static/experiments/de2/materials/stim_files/5.png,,,,2594,,188,3
726,12,0,./static/experiments/de2/materials/stim_files/4.png,./static/experiments/de2/materials/stim_files/3.png,,,,2792,,188,3
727,13,0,./static/experiments/de2/materials/stim_files/9.png,./static/experiments/de2/materials/stim_files/8.png,,,,2525,,188,3
728,14,0,./static/experiments/de2/materials/stim_files/7.png,./static/experiments/de2/materials/stim_files/8.png,,,,2538,,188,3
729,0,1,./static/experiments/de2/materials/stim_files/10.png,./static/experiments/de2/materials/stim_files/11.png,,,,2791,,188,3
730,1,1,./static/experiments/de2/materials/stim_files/13.png,./static/experiments/de2/materials/stim_files/12.png,,,,2799,,188,3
731,2,1,./static/experiments/de2/materials/stim_files/1.png,./static/experiments/de2/materials/stim_files/2.png,,,,2585,,188,3
732,3,1,./static/experiments/de2/materials/stim_files/6.png,./static/experiments/de2/materials/stim_files/7.png,,,,2450,,188,3
733,4,1,./static/experiments/de2/materials/stim_files/4.png,./static/experiments/de2/materials/stim_files/3.png,,,,2752,,188,3
734,5,1,./static/experiments/de2/materials/stim_files/5.png,./static/experiments/de2/materials/stim_files/4.png,,,,2577,,188,3
735,6,1,./static/experiments/de2/materials/stim_files/14.png,./static/experiments/de2/materials/stim_files/13.png,,,,2362,,188,3
736,7,1,./static/experiments/de2/materials/stim_files/8.png,./static/experiments/de2/materials/stim_files/9.png,,,,2528,,188,3
737,8,1,./static/experiments/de2/materials/stim_files/8.png,./static/experiments/de2/materials/stim_files/7.png,,,,2555,,188,3
738,9,1,./static/experiments/de2/materials/stim_files/15.png,./static/experiments/de2/materials/stim_files/14.png,,,,2639,,188,3
739,10,1,./static/experiments/de2/materials/stim_files/16.png,./static/experiments/de2/materials/stim_files/15.png,,,,2427,,188,3
740,11,1,./static/experiments/de2/materials/stim_files/10.png,./static/experiments/de2/materials/stim_files/9.png,,,,2390,,188,3
741,12,1,./static/experiments/de2/materials/stim_files/11.png,./static/experiments/de2/materials/stim_files/12.png,,,,2324,,188,3
742,13,1,./static/experiments/de2/materials/stim_files/3.png,./static/experiments/de2/materials/stim_files/2.png,,,,2506,,188,3
743,14,1,./static/experiments/de2/materials/stim_files/6.png,./static/experiments/de2/materials/stim_files/5.png,,,,2617,,188,3
744,0,0,./static/experiments/de2/materials/stim_files/13.png,./static/experiments/de2/materials/stim_files/5.png,1,no,1,5645,1.0,58,1
745,1,0,./static/experiments/de2/materials/stim_files/2.png,./static/experiments/de2/materials/stim_files/10.png,1,no,1,4130,1.0,58,1
746,2,0,./static/experiments/de2/materials/stim_files/8.png,./static/experiments/de2/materials/stim_files/9.png,0,yes,1,1676,1.0,58,1
747,3,0,./static/experiments/de2/materials/stim_files/3.png,./static/experiments/de2/materials/stim_files/11.png,1,no,1,1884,1.0,58,1
748,4,0,./static/experiments/de2/materials/stim_files/9.png,./static/experiments/de2/materials/stim_files/1.png,1,no,1,1568,1.0,58,1
749,5,0,./static/experiments/de2/materials/stim_files/4.png,./static/experiments/de2/materials/stim_files/12.png,1,no,1,1982,1.0,58,1
750,6,0,./static/experiments/de2/materials/stim_files/4.png,./static/experiments/de2/materials/stim_files/12.png,1,no,1,1208,1.0,58,1
751,7,0,./static/experiments/de2/materials/stim_files/5.png,./static/experiments/de2/materials/stim_files/4.png,0,yes,1,1215,1.0,58,1
752,8,0,./static/experiments/de2/materials/stim_files/8.png,./static/experiments/de2/materials/stim_files/16.png,1,yes,0,3969,1.0,58,1
753,9,0,./static/experiments/de2/materials/stim_files/15.png,./static/experiments/de2/materials/stim_files/7.png,1,no,1,1026,1.0,58,1
754,10,0,./static/experiments/de2/materials/stim_files/1.png,./static/experiments/de2/materials/stim_files/9.png,1,no,1,1317,1.0,58,1
755,11,0,./static/experiments/de2/materials/stim_files/2.png,./static/experiments/de2/materials/stim_files/10.png,1,no,1,1730,1.0,58,1
756,12,0,./static/experiments/de2/materials/stim_files/11.png,./static/experiments/de2/materials/stim_files/3.png,1,no,1,1098,1.0,58,1
757,13,0,./static/experiments/de2/materials/stim_files/8.png,./static/experiments/de2/materials/stim_files/16.png,1,no,1,1585,1.0,58,1
758,14,0,./static/experiments/de2/materials/stim_files/11.png,./static/experiments/de2/materials/stim_files/12.png,0,yes,1,1951,1.0,58,1
759,15,0,./static/experiments/de2/materials/stim_files/15.png,./static/experiments/de2/materials/stim_files/14.png,0,yes,1,1411,1.0,58,1
760,16,0,./static/experiments/de2/materials/stim_files/14.png,./static/experiments/de2/materials/stim_files/13.png,0,yes,1,3062,1.0,58,1
761,17,0,./static/experiments/de2/materials/stim_files/6.png,./static/experiments/de2/materials/stim_files/5.png,0,yes,1,830,1.0,58,1
762,18,0,./static/experiments/de2/materials/stim_files/15.png,./static/experiments/de2/materials/stim_files/16.png,0,yes,1,1250,1.0,58,1
763,19,0,./static/experiments/de2/materials/stim_files/6.png,./static/experiments/de2/materials/stim_files/7.png,0,yes,1,1156,1.0,58,1
764,20,0,./static/experiments/de2/materials/stim_files/10.png,./static/experiments/de2/materials/stim_files/11.png,0,yes,1,859,1.0,58,1
765,21,0,./static/experiments/de2/materials/stim_files/5.png,./static/experiments/de2/materials/stim_files/13.png,1,no,1,1181,1.0,58,1
