,trial,block,s1,s2,connected,response,accuracy,rt,counter,id,condition
0,0,0,./static/experiments/de1c/materials/stim_files/15.png,./static/experiments/de1c/materials/stim_files/2.png,2,yes,,7581,,0,4
1,1,0,./static/experiments/de1c/materials/stim_files/9.png,./static/experiments/de1c/materials/stim_files/2.png,2,yes,,2208,,0,4
2,2,0,./static/experiments/de1c/materials/stim_files/15.png,./static/experiments/de1c/materials/stim_files/16.png,2,no,,1201,,0,4
3,3,0,./static/experiments/de1c/materials/stim_files/12.png,./static/experiments/de1c/materials/stim_files/3.png,2,yes,,1460,,0,4
4,4,0,./static/experiments/de1c/materials/stim_files/5.png,./static/experiments/de1c/materials/stim_files/13.png,2,yes,,2167,,0,4
5,5,0,./static/experiments/de1c/materials/stim_files/11.png,./static/experiments/de1c/materials/stim_files/11.png,2,no,,860,,0,4
6,6,0,./static/experiments/de1c/materials/stim_files/2.png,./static/experiments/de1c/materials/stim_files/12.png,2,yes,,1297,,0,4
7,7,0,./static/experiments/de1c/materials/stim_files/3.png,./static/experiments/de1c/materials/stim_files/10.png,2,yes,,1008,,0,4
8,8,0,./static/experiments/de1c/materials/stim_files/5.png,./static/experiments/de1c/materials/stim_files/10.png,2,no,,1264,,0,4
9,9,0,./static/experiments/de1c/materials/stim_files/11.png,./static/experiments/de1c/materials/stim_files/6.png,2,no,,2003,,0,4
10,10,0,./static/experiments/de1c/materials/stim_files/3.png,./static/experiments/de1c/materials/stim_files/15.png,2,yes,,1330,,0,4
11,11,0,./static/experiments/de1c/materials/stim_files/3.png,./static/experiments/de1c/materials/stim_files/16.png,2,yes,,705,,0,4
12,12,0,./static/experiments/de1c/materials/stim_files/7.png,./static/experiments/de1c/materials/stim_files/11.png,2,no,,1125,,0,4
13,13,0,./static/experiments/de1c/materials/stim_files/1.png,./static/experiments/de1c/materials/stim_files/15.png,2,yes,,922,,0,4
14,14,0,./static/experiments/de1c/materials/stim_files/5.png,./static/experiments/de1c/materials/stim_files/13.png,2,no,,1129,,0,4
15,15,0,./static/experiments/de1c/materials/stim_files/10.png,./static/experiments/de1c/materials/stim_files/16.png,2,no,,1489,,0,4
16,16,0,./static/experiments/de1c/materials/stim_files/14.png,./static/experiments/de1c/materials/stim_files/15.png,2,no,,856,,0,4
17,17,0,./static/experiments/de1c/materials/stim_files/16.png,./static/experiments/de1c/materials/stim_files/5.png,2,yes,,5629,,0,4
18,18,0,./static/experiments/de1c/materials/stim_files/1.png,./static/experiments/de1c/materials/stim_files/11.png,2,yes,,685,,0,4
19,19,0,./static/experiments/de1c/materials/stim_files/5.png,./static/experiments/de1c/materials/stim_files/9.png,2,no,,1423,,0,4
20,20,0,./static/experiments/de1c/materials/stim_files/1.png,./static/experiments/de1c/materials/stim_files/16.png,2,yes,,1457,,0,4
21,21,0,./static/experiments/de1c/materials/stim_files/3.png,./static/experiments/de1c/materials/stim_files/5.png,2,no,,1041,,0,4
22,22,0,./static/experiments/de1c/materials/stim_files/2.png,./static/experiments/de1c/materials/stim_files/11.png,2,yes,,751,,0,4
23,23,0,./static/experiments/de1c/materials/stim_files/13.png,./static/experiments/de1c/materials/stim_files/10.png,2,no,,779,,0,4
24,24,0,./static/experiments/de1c/materials/stim_files/13.png,./static/experiments/de1c/materials/stim_files/11.png,2,no,,630,,0,4
25,25,0,./static/experiments/de1c/materials/stim_files/16.png,./static/experiments/de1c/materials/stim_files/4.png,2,yes,,979,,0,4
26,26,0,./static/experiments/de1c/materials/stim_files/3.png,./static/experiments/de1c/materials/stim_files/14.png,2,no,,620,,0,4
27,27,0,./static/experiments/de1c/materials/stim_files/1.png,./static/experiments/de1c/materials/stim_files/1.png,2,no,,599,,0,4
28,28,0,./static/experiments/de1c/materials/stim_files/9.png,./static/experiments/de1c/materials/stim_files/6.png,2,no,,788,,0,4
29,29,0,./static/experiments/de1c/materials/stim_files/16.png,./static/experiments/de1c/materials/stim_files/10.png,2,no,,1285,,0,4
30,30,0,./static/experiments/de1c/materials/stim_files/1.png,./static/experiments/de1c/materials/stim_files/16.png,2,yes,,656,,0,4
31,31,0,./static/experiments/de1c/materials/stim_files/1.png,./static/experiments/de1c/materials/stim_files/15.png,2,yes,,543,,0,4
32,0,0,./static/experiments/de1c/materials/stim_files/5.png,./static/experiments/de1c/materials/stim_files/13.png,2,yes,,4093,,1,3
33,1,0,./static/experiments/de1c/materials/stim_files/11.png,./static/experiments/de1c/materials/stim_files/6.png,2,yes,,1731,,1,3
34,2,0,./static/experiments/de1c/materials/stim_files/16.png,./static/experiments/de1c/materials/stim_files/1.png,2,no,,1207,,1,3
35,3,0,./static/experiments/de1c/materials/stim_files/12.png,./static/experiments/de1c/materials/stim_files/3.png,2,no,,1910,,1,3
36,4,0,./static/experiments/de1c/materials/stim_files/6.png,./static/experiments/de1c/materials/stim_files/13.png,2,yes,,657,,1,3
37,5,0,./static/experiments/de1c/materials/stim_files/10.png,./static/experiments/de1c/materials/stim_files/2.png,2,yes,,1552,,1,3
38,6,0,./static/experiments/de1c/materials/stim_files/15.png,./static/experiments/de1c/materials/stim_files/1.png,2,no,,885,,1,3
39,7,0,./static/experiments/de1c/materials/stim_files/2.png,./static/experiments/de1c/materials/stim_files/14.png,2,no,,1147,,1,3
40,8,0,./static/experiments/de1c/materials/stim_files/15.png,./static/experiments/de1c/materials/stim_files/15.png,2,yes,,1314,,1,3
41,9,0,./static/experiments/de1c/materials/stim_files/5.png,./static/experiments/de1c/materials/stim_files/8.png,2,yes,,1307,,1,3
42,10,0,./static/experiments/de1c/materials/stim_files/11.png,./static/experiments/de1c/materials/stim_files/5.png,2,yes,,976,,1,3
43,11,0,./static/experiments/de1c/materials/stim_files/14.png,./static/experiments/de1c/materials/stim_files/16.png,2,yes,,1246,,1,3
44,12,0,./static/experiments/de1c/materials/stim_files/13.png,./static/experiments/de1c/materials/stim_files/13.png,2,yes,,744,,1,3
45,13,0,./static/experiments/de1c/materials/stim_files/2.png,./static/experiments/de1c/materials/stim_files/8.png,2,no,,2890,,1,3
46,14,0,./static/experiments/de1c/materials/stim_files/1.png,./static/experiments/de1c/materials/stim_files/8.png,2,no,,910,,1,3
47,15,0,./static/experiments/de1c/materials/stim_files/12.png,./static/experiments/de1c/materials/stim_files/2.png,2,yes,,305,,1,3
48,16,0,./static/experiments/de1c/materials/stim_files/13.png,./static/experiments/de1c/materials/stim_files/9.png,2,yes,,1247,,1,3
49,17,0,./static/experiments/de1c/materials/stim_files/16.png,./static/experiments/de1c/materials/stim_files/1.png,2,no,,443,,1,3
50,18,0,./static/experiments/de1c/materials/stim_files/15.png,./static/experiments/de1c/materials/stim_files/3.png,2,no,,446,,1,3
51,19,0,./static/experiments/de1c/materials/stim_files/6.png,./static/experiments/de1c/materials/stim_files/1.png,2,no,,1176,,1,3
52,20,0,./static/experiments/de1c/materials/stim_files/1.png,./static/experiments/de1c/materials/stim_files/2.png,2,yes,,798,,1,3
53,21,0,./static/experiments/de1c/materials/stim_files/2.png,./static/experiments/de1c/materials/stim_files/16.png,2,no,,679,,1,3
54,22,0,./static/experiments/de1c/materials/stim_files/9.png,./static/experiments/de1c/materials/stim_files/5.png,2,yes,,1693,,1,3
55,23,0,./static/experiments/de1c/materials/stim_files/1.png,./static/experiments/de1c/materials/stim_files/12.png,2,no,,521,,1,3
56,24,0,./static/experiments/de1c/materials/stim_files/15.png,./static/experiments/de1c/materials/stim_files/2.png,2,yes,,1602,,1,3
57,25,0,./static/experiments/de1c/materials/stim_files/13.png,./static/experiments/de1c/materials/stim_files/11.png,2,yes,,747,,1,3
58,26,0,./static/experiments/de1c/materials/stim_files/16.png,./static/experiments/de1c/materials/stim_files/5.png,2,no,,726,,1,3
59,27,0,./static/experiments/de1c/materials/stim_files/9.png,./static/experiments/de1c/materials/stim_files/6.png,2,yes,,1405,,1,3
60,28,0,./static/experiments/de1c/materials/stim_files/7.png,./static/experiments/de1c/materials/stim_files/6.png,2,yes,,494,,1,3
61,29,0,./static/experiments/de1c/materials/stim_files/6.png,./static/experiments/de1c/materials/stim_files/16.png,2,no,,583,,1,3
62,30,0,./static/experiments/de1c/materials/stim_files/14.png,./static/experiments/de1c/materials/stim_files/5.png,2,no,,576,,1,3
63,31,0,./static/experiments/de1c/materials/stim_files/14.png,./static/experiments/de1c/materials/stim_files/1.png,2,no,,464,,1,3
64,0,0,./static/experiments/de1c/materials/stim_files/12.png,./static/experiments/de1c/materials/stim_files/2.png,2,yes,,8255,,2,2
65,1,0,./static/experiments/de1c/materials/stim_files/14.png,./static/experiments/de1c/materials/stim_files/15.png,2,no,,1846,,2,2
66,2,0,./static/experiments/de1c/materials/stim_files/1.png,./static/experiments/de1c/materials/stim_files/12.png,2,yes,,4351,,2,2
67,3,0,./static/experiments/de1c/materials/stim_files/8.png,./static/experiments/de1c/materials/stim_files/4.png,2,no,,2152,,2,2
68,4,0,./static/experiments/de1c/materials/stim_files/11.png,./static/experiments/de1c/materials/stim_files/5.png,2,no,,1463,,2,2
69,5,0,./static/experiments/de1c/materials/stim_files/4.png,./static/experiments/de1c/materials/stim_files/6.png,2,no,,6393,,2,2
70,6,0,./static/experiments/de1c/materials/stim_files/12.png,./static/experiments/de1c/materials/stim_files/13.png,2,no,,1821,,2,2
71,7,0,./static/experiments/de1c/materials/stim_files/14.png,./static/experiments/de1c/materials/stim_files/10.png,2,no,,1935,,2,2
72,8,0,./static/experiments/de1c/materials/stim_files/12.png,./static/experiments/de1c/materials/stim_files/5.png,2,yes,,842,,2,2
73,9,0,./static/experiments/de1c/materials/stim_files/15.png,./static/experiments/de1c/materials/stim_files/1.png,2,yes,,702,,2,2
74,10,0,./static/experiments/de1c/materials/stim_files/9.png,./static/experiments/de1c/materials/stim_files/6.png,2,no,,863,,2,2
75,11,0,./static/experiments/de1c/materials/stim_files/15.png,./static/experiments/de1c/materials/stim_files/2.png,2,yes,,600,,2,2
76,12,0,./static/experiments/de1c/materials/stim_files/11.png,./static/experiments/de1c/materials/stim_files/1.png,2,yes,,742,,2,2
77,13,0,./static/experiments/de1c/materials/stim_files/10.png,./static/experiments/de1c/materials/stim_files/12.png,2,no,,555,,2,2
78,14,0,./static/experiments/de1c/materials/stim_files/11.png,./static/experiments/de1c/materials/stim_files/8.png,2,no,,819,,2,2
79,15,0,./static/experiments/de1c/materials/stim_files/6.png,./static/experiments/de1c/materials/stim_files/14.png,2,yes,,632,,2,2
80,16,0,./static/experiments/de1c/materials/stim_files/16.png,./static/experiments/de1c/materials/stim_files/1.png,2,yes,,708,,2,2
81,17,0,./static/experiments/de1c/materials/stim_files/1.png,./static/experiments/de1c/materials/stim_files/16.png,2,yes,,902,,2,2
82,18,0,./static/experiments/de1c/materials/stim_files/4.png,./static/experiments/de1c/materials/stim_files/13.png,2,yes,,623,,2,2
83,19,0,./static/experiments/de1c/materials/stim_files/4.png,./static/experiments/de1c/materials/stim_files/4.png,2,no,,784,,2,2
84,20,0,./static/experiments/de1c/materials/stim_files/1.png,./static/experiments/de1c/materials/stim_files/9.png,2,yes,,675,,2,2
85,21,0,./static/experiments/de1c/materials/stim_files/7.png,./static/experiments/de1c/materials/stim_files/1.png,2,yes,,1028,,2,2
86,22,0,./static/experiments/de1c/materials/stim_files/2.png,./static/experiments/de1c/materials/stim_files/15.png,2,yes,,931,,2,2
87,23,0,./static/experiments/de1c/materials/stim_files/6.png,./static/experiments/de1c/materials/stim_files/11.png,2,no,,812,,2,2
88,24,0,./static/experiments/de1c/materials/stim_files/1.png,./static/experiments/de1c/materials/stim_files/6.png,2,no,,1278,,2,2
89,25,0,./static/experiments/de1c/materials/stim_files/16.png,./static/experiments/de1c/materials/stim_files/5.png,2,yes,,2044,,2,2
90,26,0,./static/experiments/de1c/materials/stim_files/13.png,./static/experiments/de1c/materials/stim_files/6.png,2,yes,,518,,2,2
91,27,0,./static/experiments/de1c/materials/stim_files/2.png,./static/experiments/de1c/materials/stim_files/14.png,2,yes,,717,,2,2
92,28,0,./static/experiments/de1c/materials/stim_files/15.png,./static/experiments/de1c/materials/stim_files/15.png,2,no,,764,,2,2
93,29,0,./static/experiments/de1c/materials/stim_files/1.png,./static/experiments/de1c/materials/stim_files/15.png,2,yes,,784,,2,2
94,30,0,./static/experiments/de1c/materials/stim_files/7.png,./static/experiments/de1c/materials/stim_files/16.png,2,yes,,1509,,2,2
95,31,0,./static/experiments/de1c/materials/stim_files/1.png,./static/experiments/de1c/materials/stim_files/13.png,2,yes,,699,,2,2
96,0,0,./static/experiments/de1c/materials/stim_files/13.png,./static/experiments/de1c/materials/stim_files/2.png,2,yes,,1341,,3,4
97,1,0,./static/experiments/de1c/materials/stim_files/15.png,./static/experiments/de1c/materials/stim_files/1.png,2,yes,,898,,3,4
98,2,0,./static/experiments/de1c/materials/stim_files/13.png,./static/experiments/de1c/materials/stim_files/6.png,2,no,,4591,,3,4
99,3,0,./static/experiments/de1c/materials/stim_files/8.png,./static/experiments/de1c/materials/stim_files/9.png,2,yes,,1196,,3,4
100,4,0,./static/experiments/de1c/materials/stim_files/9.png,./static/experiments/de1c/materials/stim_files/11.png,2,no,,3065,,3,4
101,5,0,./static/experiments/de1c/materials/stim_files/1.png,./static/experiments/de1c/materials/stim_files/14.png,2,yes,,896,,3,4
102,6,0,./static/experiments/de1c/materials/stim_files/1.png,./static/experiments/de1c/materials/stim_files/16.png,2,yes,,1892,,3,4
103,7,0,./static/experiments/de1c/materials/stim_files/7.png,./static/experiments/de1c/materials/stim_files/13.png,2,no,,1002,,3,4
104,8,0,./static/experiments/de1c/materials/stim_files/10.png,./static/experiments/de1c/materials/stim_files/2.png,2,no,,1908,,3,4
105,9,0,./static/experiments/de1c/materials/stim_files/13.png,./static/experiments/de1c/materials/stim_files/2.png,2,yes,,849,,3,4
106,10,0,./static/experiments/de1c/materials/stim_files/7.png,./static/experiments/de1c/materials/stim_files/4.png,2,no,,1318,,3,4
107,11,0,./static/experiments/de1c/materials/stim_files/14.png,./static/experiments/de1c/materials/stim_files/1.png,2,yes,,840,,3,4
108,12,0,./static/experiments/de1c/materials/stim_files/7.png,./static/experiments/de1c/materials/stim_files/2.png,2,no,,1008,,3,4
109,13,0,./static/experiments/de1c/materials/stim_files/9.png,./static/experiments/de1c/materials/stim_files/5.png,2,no,,1002,,3,4
110,14,0,./static/experiments/de1c/materials/stim_files/16.png,./static/experiments/de1c/materials/stim_files/4.png,2,yes,,697,,3,4
111,15,0,./static/experiments/de1c/materials/stim_files/2.png,./static/experiments/de1c/materials/stim_files/16.png,2,yes,,861,,3,4
112,16,0,./static/experiments/de1c/materials/stim_files/13.png,./static/experiments/de1c/materials/stim_files/3.png,2,yes,,1608,,3,4
113,17,0,./static/experiments/de1c/materials/stim_files/14.png,./static/experiments/de1c/materials/stim_files/2.png,2,yes,,948,,3,4
114,18,0,./static/experiments/de1c/materials/stim_files/8.png,./static/experiments/de1c/materials/stim_files/12.png,2,no,,1119,,3,4
115,19,0,./static/experiments/de1c/materials/stim_files/16.png,./static/experiments/de1c/materials/stim_files/1.png,2,yes,,830,,3,4
116,20,0,./static/experiments/de1c/materials/stim_files/9.png,./static/experiments/de1c/materials/stim_files/2.png,2,yes,,1445,,3,4
117,21,0,./static/experiments/de1c/materials/stim_files/11.png,./static/experiments/de1c/materials/stim_files/11.png,2,no,,1328,,3,4
118,22,0,./static/experiments/de1c/materials/stim_files/15.png,./static/experiments/de1c/materials/stim_files/5.png,2,yes,,962,,3,4
119,23,0,./static/experiments/de1c/materials/stim_files/5.png,./static/experiments/de1c/materials/stim_files/13.png,2,yes,,689,,3,4
120,24,0,./static/experiments/de1c/materials/stim_files/2.png,./static/experiments/de1c/materials/stim_files/1.png,2,no,,1159,,3,4
121,25,0,./static/experiments/de1c/materials/stim_files/12.png,./static/experiments/de1c/materials/stim_files/3.png,2,yes,,498,,3,4
122,26,0,./static/experiments/de1c/materials/stim_files/10.png,./static/experiments/de1c/materials/stim_files/10.png,2,yes,,1102,,3,4
123,27,0,./static/experiments/de1c/materials/stim_files/8.png,./static/experiments/de1c/materials/stim_files/2.png,2,yes,,814,,3,4
124,28,0,./static/experiments/de1c/materials/stim_files/12.png,./static/experiments/de1c/materials/stim_files/9.png,2,no,,1552,,3,4
125,29,0,./static/experiments/de1c/materials/stim_files/16.png,./static/experiments/de1c/materials/stim_files/7.png,2,yes,,739,,3,4
126,30,0,./static/experiments/de1c/materials/stim_files/12.png,./static/experiments/de1c/materials/stim_files/10.png,2,no,,756,,3,4
127,31,0,./static/experiments/de1c/materials/stim_files/2.png,./static/experiments/de1c/materials/stim_files/7.png,2,yes,,776,,3,4
128,0,0,./static/experiments/de1c/materials/stim_files/16.png,./static/experiments/de1c/materials/stim_files/4.png,2,yes,,6470,,4,1
129,1,0,./static/experiments/de1c/materials/stim_files/14.png,./static/experiments/de1c/materials/stim_files/1.png,2,yes,,1141,,4,1
130,2,0,./static/experiments/de1c/materials/stim_files/7.png,./static/experiments/de1c/materials/stim_files/14.png,2,yes,,1158,,4,1
131,3,0,./static/experiments/de1c/materials/stim_files/4.png,./static/experiments/de1c/materials/stim_files/10.png,2,yes,,1011,,4,1
132,4,0,./static/experiments/de1c/materials/stim_files/2.png,./static/experiments/de1c/materials/stim_files/7.png,2,yes,,978,,4,1
133,5,0,./static/experiments/de1c/materials/stim_files/4.png,./static/experiments/de1c/materials/stim_files/15.png,2,yes,,919,,4,1
134,6,0,./static/experiments/de1c/materials/stim_files/10.png,./static/experiments/de1c/materials/stim_files/6.png,2,yes,,838,,4,1
135,7,0,./static/experiments/de1c/materials/stim_files/5.png,./static/experiments/de1c/materials/stim_files/15.png,2,yes,,502,,4,1
136,8,0,./static/experiments/de1c/materials/stim_files/10.png,./static/experiments/de1c/materials/stim_files/10.png,2,no,,693,,4,1
137,9,0,./static/experiments/de1c/materials/stim_files/9.png,./static/experiments/de1c/materials/stim_files/11.png,2,yes,,998,,4,1
138,10,0,./static/experiments/de1c/materials/stim_files/14.png,./static/experiments/de1c/materials/stim_files/4.png,2,yes,,901,,4,1
139,11,0,./static/experiments/de1c/materials/stim_files/9.png,./static/experiments/de1c/materials/stim_files/3.png,2,yes,,610,,4,1
140,12,0,./static/experiments/de1c/materials/stim_files/15.png,./static/experiments/de1c/materials/stim_files/8.png,2,yes,,567,,4,1
141,13,0,./static/experiments/de1c/materials/stim_files/4.png,./static/experiments/de1c/materials/stim_files/12.png,2,yes,,709,,4,1
142,14,0,./static/experiments/de1c/materials/stim_files/7.png,./static/experiments/de1c/materials/stim_files/15.png,2,yes,,652,,4,1
143,15,0,./static/experiments/de1c/materials/stim_files/11.png,./static/experiments/de1c/materials/stim_files/15.png,2,yes,,822,,4,1
144,16,0,./static/experiments/de1c/materials/stim_files/14.png,./static/experiments/de1c/materials/stim_files/16.png,2,yes,,954,,4,1
145,17,0,./static/experiments/de1c/materials/stim_files/9.png,./static/experiments/de1c/materials/stim_files/10.png,2,yes,,1567,,4,1
146,18,0,./static/experiments/de1c/materials/stim_files/14.png,./static/experiments/de1c/materials/stim_files/2.png,2,yes,,771,,4,1
147,19,0,./static/experiments/de1c/materials/stim_files/15.png,./static/experiments/de1c/materials/stim_files/1.png,2,yes,,556,,4,1
148,20,0,./static/experiments/de1c/materials/stim_files/4.png,./static/experiments/de1c/materials/stim_files/4.png,2,no,,918,,4,1
149,21,0,./static/experiments/de1c/materials/stim_files/4.png,./static/experiments/de1c/materials/stim_files/7.png,2,yes,,788,,4,1
150,22,0,./static/experiments/de1c/materials/stim_files/1.png,./static/experiments/de1c/materials/stim_files/14.png,2,yes,,853,,4,1
151,23,0,./static/experiments/de1c/materials/stim_files/8.png,./static/experiments/de1c/materials/stim_files/3.png,2,yes,,1366,,4,1
152,24,0,./static/experiments/de1c/materials/stim_files/2.png,./static/experiments/de1c/materials/stim_files/16.png,2,yes,,566,,4,1
153,25,0,./static/experiments/de1c/materials/stim_files/15.png,./static/experiments/de1c/materials/stim_files/4.png,2,yes,,578,,4,1
154,26,0,./static/experiments/de1c/materials/stim_files/9.png,./static/experiments/de1c/materials/stim_files/8.png,2,yes,,630,,4,1
155,27,0,./static/experiments/de1c/materials/stim_files/16.png,./static/experiments/de1c/materials/stim_files/1.png,2,yes,,533,,4,1
156,28,0,./static/experiments/de1c/materials/stim_files/7.png,./static/experiments/de1c/materials/stim_files/10.png,2,yes,,548,,4,1
157,29,0,./static/experiments/de1c/materials/stim_files/7.png,./static/experiments/de1c/materials/stim_files/16.png,2,yes,,869,,4,1
158,30,0,./static/experiments/de1c/materials/stim_files/1.png,./static/experiments/de1c/materials/stim_files/16.png,2,yes,,469,,4,1
159,31,0,./static/experiments/de1c/materials/stim_files/13.png,./static/experiments/de1c/materials/stim_files/4.png,2,yes,,468,,4,1
160,0,0,./static/experiments/de1c/materials/stim_files/3.png,./static/experiments/de1c/materials/stim_files/14.png,2,yes,,5600,,5,1
161,1,0,./static/experiments/de1c/materials/stim_files/16.png,./static/experiments/de1c/materials/stim_files/1.png,2,yes,,671,,5,1
162,2,0,./static/experiments/de1c/materials/stim_files/3.png,./static/experiments/de1c/materials/stim_files/13.png,2,yes,,698,,5,1
163,3,0,./static/experiments/de1c/materials/stim_files/1.png,./static/experiments/de1c/materials/stim_files/1.png,2,no,,601,,5,1
164,4,0,./static/experiments/de1c/materials/stim_files/13.png,./static/experiments/de1c/materials/stim_files/6.png,2,yes,,540,,5,1
165,5,0,./static/experiments/de1c/materials/stim_files/3.png,./static/experiments/de1c/materials/stim_files/14.png,2,yes,,639,,5,1
166,6,0,./static/experiments/de1c/materials/stim_files/1.png,./static/experiments/de1c/materials/stim_files/14.png,2,yes,,449,,5,1
167,7,0,./static/experiments/de1c/materials/stim_files/1.png,./static/experiments/de1c/materials/stim_files/16.png,2,yes,,555,,5,1
168,8,0,./static/experiments/de1c/materials/stim_files/14.png,./static/experiments/de1c/materials/stim_files/2.png,2,yes,,549,,5,1
169,9,0,./static/experiments/de1c/materials/stim_files/8.png,./static/experiments/de1c/materials/stim_files/12.png,2,yes,,1131,,5,1
170,10,0,./static/experiments/de1c/materials/stim_files/10.png,./static/experiments/de1c/materials/stim_files/15.png,2,yes,,602,,5,1
171,11,0,./static/experiments/de1c/materials/stim_files/5.png,./static/experiments/de1c/materials/stim_files/6.png,2,yes,,3082,,5,1
172,12,0,./static/experiments/de1c/materials/stim_files/13.png,./static/experiments/de1c/materials/stim_files/9.png,2,yes,,876,,5,1
173,13,0,./static/experiments/de1c/materials/stim_files/3.png,./static/experiments/de1c/materials/stim_files/9.png,2,yes,,571,,5,1
174,14,0,./static/experiments/de1c/materials/stim_files/3.png,./static/experiments/de1c/materials/stim_files/4.png,2,yes,,3779,,5,1
175,15,0,./static/experiments/de1c/materials/stim_files/13.png,./static/experiments/de1c/materials/stim_files/7.png,2,yes,,701,,5,1
176,16,0,./static/experiments/de1c/materials/stim_files/9.png,./static/experiments/de1c/materials/stim_files/7.png,2,yes,,1387,,5,1
177,17,0,./static/experiments/de1c/materials/stim_files/9.png,./static/experiments/de1c/materials/stim_files/9.png,2,no,,722,,5,1
178,18,0,./static/experiments/de1c/materials/stim_files/15.png,./static/experiments/de1c/materials/stim_files/1.png,2,yes,,849,,5,1
179,19,0,./static/experiments/de1c/materials/stim_files/16.png,./static/experiments/de1c/materials/stim_files/7.png,2,yes,,504,,5,1
180,20,0,./static/experiments/de1c/materials/stim_files/1.png,./static/experiments/de1c/materials/stim_files/15.png,2,yes,,431,,5,1
181,21,0,./static/experiments/de1c/materials/stim_files/9.png,./static/experiments/de1c/materials/stim_files/2.png,2,yes,,510,,5,1
182,22,0,./static/experiments/de1c/materials/stim_files/14.png,./static/experiments/de1c/materials/stim_files/5.png,2,yes,,444,,5,1
183,23,0,./static/experiments/de1c/materials/stim_files/9.png,./static/experiments/de1c/materials/stim_files/4.png,2,yes,,491,,5,1
184,24,0,./static/experiments/de1c/materials/stim_files/5.png,./static/experiments/de1c/materials/stim_files/15.png,2,yes,,542,,5,1
185,25,0,./static/experiments/de1c/materials/stim_files/13.png,./static/experiments/de1c/materials/stim_files/1.png,2,yes,,536,,5,1
186,26,0,./static/experiments/de1c/materials/stim_files/8.png,./static/experiments/de1c/materials/stim_files/11.png,2,yes,,721,,5,1
187,27,0,./static/experiments/de1c/materials/stim_files/14.png,./static/experiments/de1c/materials/stim_files/1.png,2,yes,,483,,5,1
188,28,0,./static/experiments/de1c/materials/stim_files/9.png,./static/experiments/de1c/materials/stim_files/11.png,2,yes,,545,,5,1
189,29,0,./static/experiments/de1c/materials/stim_files/12.png,./static/experiments/de1c/materials/stim_files/4.png,2,yes,,466,,5,1
190,30,0,./static/experiments/de1c/materials/stim_files/1.png,./static/experiments/de1c/materials/stim_files/4.png,2,yes,,1107,,5,1
191,31,0,./static/experiments/de1c/materials/stim_files/9.png,./static/experiments/de1c/materials/stim_files/1.png,2,yes,,774,,5,1
192,0,0,./static/experiments/de1c/materials/stim_files/15.png,./static/experiments/de1c/materials/stim_files/5.png,2,yes,,5093,,6,4
193,1,0,./static/experiments/de1c/materials/stim_files/13.png,./static/experiments/de1c/materials/stim_files/4.png,2,yes,,1086,,6,4
194,2,0,./static/experiments/de1c/materials/stim_files/10.png,./static/experiments/de1c/materials/stim_files/8.png,2,no,,1375,,6,4
195,3,0,./static/experiments/de1c/materials/stim_files/13.png,./static/experiments/de1c/materials/stim_files/6.png,2,no,,1370,,6,4
196,4,0,./static/experiments/de1c/materials/stim_files/10.png,./static/experiments/de1c/materials/stim_files/16.png,2,no,,1484,,6,4
197,5,0,./static/experiments/de1c/materials/stim_files/8.png,./static/experiments/de1c/materials/stim_files/9.png,2,no,,3697,,6,4
198,6,0,./static/experiments/de1c/materials/stim_files/9.png,./static/experiments/de1c/materials/stim_files/15.png,2,no,,862,,6,4
199,7,0,./static/experiments/de1c/materials/stim_files/5.png,./static/experiments/de1c/materials/stim_files/14.png,2,yes,,1045,,6,4
200,8,0,./static/experiments/de1c/materials/stim_files/6.png,./static/experiments/de1c/materials/stim_files/16.png,2,yes,,912,,6,4
201,9,0,./static/experiments/de1c/materials/stim_files/16.png,./static/experiments/de1c/materials/stim_files/5.png,2,yes,,1060,,6,4
202,10,0,./static/experiments/de1c/materials/stim_files/2.png,./static/experiments/de1c/materials/stim_files/10.png,2,yes,,1303,,6,4
203,11,0,./static/experiments/de1c/materials/stim_files/8.png,./static/experiments/de1c/materials/stim_files/16.png,2,no,,1047,,6,4
204,12,0,./static/experiments/de1c/materials/stim_files/9.png,./static/experiments/de1c/materials/stim_files/14.png,2,no,,955,,6,4
205,13,0,./static/experiments/de1c/materials/stim_files/16.png,./static/experiments/de1c/materials/stim_files/2.png,2,yes,,950,,6,4
206,14,0,./static/experiments/de1c/materials/stim_files/16.png,./static/experiments/de1c/materials/stim_files/4.png,2,yes,,903,,6,4
207,15,0,./static/experiments/de1c/materials/stim_files/4.png,./static/experiments/de1c/materials/stim_files/9.png,2,no,,1408,,6,4
208,16,0,./static/experiments/de1c/materials/stim_files/9.png,./static/experiments/de1c/materials/stim_files/9.png,2,no,,1052,,6,4
209,17,0,./static/experiments/de1c/materials/stim_files/7.png,./static/experiments/de1c/materials/stim_files/11.png,2,no,,1024,,6,4
210,18,0,./static/experiments/de1c/materials/stim_files/1.png,./static/experiments/de1c/materials/stim_files/16.png,2,yes,,839,,6,4
211,19,0,./static/experiments/de1c/materials/stim_files/10.png,./static/experiments/de1c/materials/stim_files/14.png,2,no,,820,,6,4
212,20,0,./static/experiments/de1c/materials/stim_files/4.png,./static/experiments/de1c/materials/stim_files/7.png,2,no,,1044,,6,4
213,21,0,./static/experiments/de1c/materials/stim_files/7.png,./static/experiments/de1c/materials/stim_files/5.png,2,no,,958,,6,4
214,22,0,./static/experiments/de1c/materials/stim_files/2.png,./static/experiments/de1c/materials/stim_files/1.png,2,yes,,8206,,6,4
215,23,0,./static/experiments/de1c/materials/stim_files/13.png,./static/experiments/de1c/materials/stim_files/6.png,2,no,,1911,,6,4
216,24,0,./static/experiments/de1c/materials/stim_files/1.png,./static/experiments/de1c/materials/stim_files/15.png,2,yes,,885,,6,4
217,25,0,./static/experiments/de1c/materials/stim_files/15.png,./static/experiments/de1c/materials/stim_files/4.png,2,yes,,796,,6,4
218,26,0,./static/experiments/de1c/materials/stim_files/13.png,./static/experiments/de1c/materials/stim_files/1.png,2,yes,,721,,6,4
219,27,0,./static/experiments/de1c/materials/stim_files/15.png,./static/experiments/de1c/materials/stim_files/2.png,2,yes,,653,,6,4
220,28,0,./static/experiments/de1c/materials/stim_files/6.png,./static/experiments/de1c/materials/stim_files/6.png,2,no,,968,,6,4
221,29,0,./static/experiments/de1c/materials/stim_files/10.png,./static/experiments/de1c/materials/stim_files/7.png,2,no,,984,,6,4
222,30,0,./static/experiments/de1c/materials/stim_files/15.png,./static/experiments/de1c/materials/stim_files/2.png,2,yes,,767,,6,4
223,31,0,./static/experiments/de1c/materials/stim_files/16.png,./static/experiments/de1c/materials/stim_files/1.png,2,yes,,717,,6,4
224,0,0,./static/experiments/de1c/materials/stim_files/9.png,./static/experiments/de1c/materials/stim_files/14.png,2,yes,,4176,,7,2
225,1,0,./static/experiments/de1c/materials/stim_files/13.png,./static/experiments/de1c/materials/stim_files/2.png,2,yes,,1338,,7,2
226,2,0,./static/experiments/de1c/materials/stim_files/4.png,./static/experiments/de1c/materials/stim_files/1.png,2,yes,,1909,,7,2
227,3,0,./static/experiments/de1c/materials/stim_files/16.png,./static/experiments/de1c/materials/stim_files/2.png,2,yes,,1046,,7,2
228,4,0,./static/experiments/de1c/materials/stim_files/9.png,./static/experiments/de1c/materials/stim_files/9.png,2,no,,943,,7,2
229,5,0,./static/experiments/de1c/materials/stim_files/4.png,./static/experiments/de1c/materials/stim_files/13.png,2,yes,,1169,,7,2
230,6,0,./static/experiments/de1c/materials/stim_files/1.png,./static/experiments/de1c/materials/stim_files/2.png,2,no,,1417,,7,2
231,7,0,./static/experiments/de1c/materials/stim_files/11.png,./static/experiments/de1c/materials/stim_files/5.png,2,yes,,1144,,7,2
232,8,0,./static/experiments/de1c/materials/stim_files/9.png,./static/experiments/de1c/materials/stim_files/8.png,2,no,,1094,,7,2
233,9,0,./static/experiments/de1c/materials/stim_files/4.png,./static/experiments/de1c/materials/stim_files/4.png,2,no,,1804,,7,2
234,10,0,./static/experiments/de1c/materials/stim_files/9.png,./static/experiments/de1c/materials/stim_files/4.png,2,yes,,1292,,7,2
235,11,0,./static/experiments/de1c/materials/stim_files/15.png,./static/experiments/de1c/materials/stim_files/1.png,2,yes,,2921,,7,2
236,12,0,./static/experiments/de1c/materials/stim_files/11.png,./static/experiments/de1c/materials/stim_files/4.png,2,yes,,1749,,7,2
237,13,0,./static/experiments/de1c/materials/stim_files/8.png,./static/experiments/de1c/materials/stim_files/16.png,2,yes,,2501,,7,2
238,14,0,./static/experiments/de1c/materials/stim_files/6.png,./static/experiments/de1c/materials/stim_files/2.png,2,yes,,2278,,7,2
239,15,0,./static/experiments/de1c/materials/stim_files/5.png,./static/experiments/de1c/materials/stim_files/3.png,2,no,,2112,,7,2
240,16,0,./static/experiments/de1c/materials/stim_files/13.png,./static/experiments/de1c/materials/stim_files/1.png,2,yes,,1419,,7,2
241,17,0,./static/experiments/de1c/materials/stim_files/1.png,./static/experiments/de1c/materials/stim_files/12.png,2,yes,,934,,7,2
242,18,0,./static/experiments/de1c/materials/stim_files/1.png,./static/experiments/de1c/materials/stim_files/16.png,2,yes,,834,,7,2
243,19,0,./static/experiments/de1c/materials/stim_files/15.png,./static/experiments/de1c/materials/stim_files/13.png,2,no,,1243,,7,2
244,20,0,./static/experiments/de1c/materials/stim_files/5.png,./static/experiments/de1c/materials/stim_files/8.png,2,no,,949,,7,2
245,21,0,./static/experiments/de1c/materials/stim_files/6.png,./static/experiments/de1c/materials/stim_files/16.png,2,yes,,6424,,7,2
246,22,0,./static/experiments/de1c/materials/stim_files/3.png,./static/experiments/de1c/materials/stim_files/12.png,2,yes,,970,,7,2
247,23,0,./static/experiments/de1c/materials/stim_files/4.png,./static/experiments/de1c/materials/stim_files/14.png,2,yes,,821,,7,2
248,24,0,./static/experiments/de1c/materials/stim_files/2.png,./static/experiments/de1c/materials/stim_files/8.png,2,yes,,1443,,7,2
249,25,0,./static/experiments/de1c/materials/stim_files/16.png,./static/experiments/de1c/materials/stim_files/1.png,2,yes,,873,,7,2
250,26,0,./static/experiments/de1c/materials/stim_files/5.png,./static/experiments/de1c/materials/stim_files/12.png,2,yes,,1224,,7,2
251,27,0,./static/experiments/de1c/materials/stim_files/5.png,./static/experiments/de1c/materials/stim_files/1.png,2,yes,,1540,,7,2
252,28,0,./static/experiments/de1c/materials/stim_files/2.png,./static/experiments/de1c/materials/stim_files/15.png,2,yes,,869,,7,2
253,29,0,./static/experiments/de1c/materials/stim_files/5.png,./static/experiments/de1c/materials/stim_files/13.png,2,yes,,799,,7,2
254,30,0,./static/experiments/de1c/materials/stim_files/13.png,./static/experiments/de1c/materials/stim_files/1.png,2,yes,,830,,7,2
255,31,0,./static/experiments/de1c/materials/stim_files/1.png,./static/experiments/de1c/materials/stim_files/14.png,2,yes,,687,,7,2
256,0,0,./static/experiments/de1c/materials/stim_files/9.png,./static/experiments/de1c/materials/stim_files/9.png,2,no,,6257,,8,2
257,1,0,./static/experiments/de1c/materials/stim_files/7.png,./static/experiments/de1c/materials/stim_files/12.png,2,yes,,1913,,8,2
258,2,0,./static/experiments/de1c/materials/stim_files/13.png,./static/experiments/de1c/materials/stim_files/1.png,2,yes,,1087,,8,2
259,3,0,./static/experiments/de1c/materials/stim_files/6.png,./static/experiments/de1c/materials/stim_files/9.png,2,no,,3102,,8,2
260,4,0,./static/experiments/de1c/materials/stim_files/6.png,./static/experiments/de1c/materials/stim_files/2.png,2,yes,,1938,,8,2
261,5,0,./static/experiments/de1c/materials/stim_files/15.png,./static/experiments/de1c/materials/stim_files/13.png,2,no,,2052,,8,2
262,6,0,./static/experiments/de1c/materials/stim_files/11.png,./static/experiments/de1c/materials/stim_files/9.png,2,no,,1396,,8,2
263,7,0,./static/experiments/de1c/materials/stim_files/5.png,./static/experiments/de1c/materials/stim_files/13.png,2,yes,,989,,8,2
264,8,0,./static/experiments/de1c/materials/stim_files/2.png,./static/experiments/de1c/materials/stim_files/13.png,2,yes,,1005,,8,2
265,9,0,./static/experiments/de1c/materials/stim_files/5.png,./static/experiments/de1c/materials/stim_files/4.png,2,no,,1104,,8,2
266,10,0,./static/experiments/de1c/materials/stim_files/1.png,./static/experiments/de1c/materials/stim_files/16.png,2,yes,,7317,,8,2
267,11,0,./static/experiments/de1c/materials/stim_files/2.png,./static/experiments/de1c/materials/stim_files/16.png,2,yes,,854,,8,2
268,12,0,./static/experiments/de1c/materials/stim_files/6.png,./static/experiments/de1c/materials/stim_files/1.png,2,yes,,1438,,8,2
269,13,0,./static/experiments/de1c/materials/stim_files/16.png,./static/experiments/de1c/materials/stim_files/2.png,2,yes,,960,,8,2
270,14,0,./static/experiments/de1c/materials/stim_files/16.png,./static/experiments/de1c/materials/stim_files/1.png,2,yes,,895,,8,2
271,15,0,./static/experiments/de1c/materials/stim_files/16.png,./static/experiments/de1c/materials/stim_files/13.png,2,no,,2814,,8,2
272,16,0,./static/experiments/de1c/materials/stim_files/11.png,./static/experiments/de1c/materials/stim_files/15.png,2,no,,2168,,8,2
273,17,0,./static/experiments/de1c/materials/stim_files/10.png,./static/experiments/de1c/materials/stim_files/11.png,2,no,,995,,8,2
274,18,0,./static/experiments/de1c/materials/stim_files/6.png,./static/experiments/de1c/materials/stim_files/14.png,2,yes,,1113,,8,2
275,19,0,./static/experiments/de1c/materials/stim_files/10.png,./static/experiments/de1c/materials/stim_files/1.png,2,yes,,897,,8,2
276,20,0,./static/experiments/de1c/materials/stim_files/1.png,./static/experiments/de1c/materials/stim_files/8.png,2,yes,,1001,,8,2
277,21,0,./static/experiments/de1c/materials/stim_files/6.png,./static/experiments/de1c/materials/stim_files/16.png,2,yes,,987,,8,2
278,22,0,./static/experiments/de1c/materials/stim_files/6.png,./static/experiments/de1c/materials/stim_files/16.png,2,yes,,761,,8,2
279,23,0,./static/experiments/de1c/materials/stim_files/7.png,./static/experiments/de1c/materials/stim_files/1.png,2,yes,,1460,,8,2
280,24,0,./static/experiments/de1c/materials/stim_files/15.png,./static/experiments/de1c/materials/stim_files/15.png,2,no,,1063,,8,2
281,25,0,./static/experiments/de1c/materials/stim_files/3.png,./static/experiments/de1c/materials/stim_files/14.png,2,yes,,858,,8,2
282,26,0,./static/experiments/de1c/materials/stim_files/1.png,./static/experiments/de1c/materials/stim_files/14.png,2,yes,,838,,8,2
283,27,0,./static/experiments/de1c/materials/stim_files/9.png,./static/experiments/de1c/materials/stim_files/3.png,2,yes,,1000,,8,2
284,28,0,./static/experiments/de1c/materials/stim_files/3.png,./static/experiments/de1c/materials/stim_files/15.png,2,yes,,787,,8,2
285,29,0,./static/experiments/de1c/materials/stim_files/14.png,./static/experiments/de1c/materials/stim_files/5.png,2,yes,,788,,8,2
286,30,0,./static/experiments/de1c/materials/stim_files/15.png,./static/experiments/de1c/materials/stim_files/2.png,2,yes,,801,,8,2
287,31,0,./static/experiments/de1c/materials/stim_files/13.png,./static/experiments/de1c/materials/stim_files/6.png,2,yes,,1277,,8,2
288,0,0,./static/experiments/de1c/materials/stim_files/4.png,./static/experiments/de1c/materials/stim_files/15.png,2,yes,,7782,,9,1
289,1,0,./static/experiments/de1c/materials/stim_files/9.png,./static/experiments/de1c/materials/stim_files/16.png,2,yes,,1266,,9,1
290,2,0,./static/experiments/de1c/materials/stim_files/11.png,./static/experiments/de1c/materials/stim_files/4.png,2,yes,,980,,9,1
291,3,0,./static/experiments/de1c/materials/stim_files/16.png,./static/experiments/de1c/materials/stim_files/2.png,2,yes,,846,,9,1
292,4,0,./static/experiments/de1c/materials/stim_files/16.png,./static/experiments/de1c/materials/stim_files/3.png,2,yes,,762,,9,1
293,5,0,./static/experiments/de1c/materials/stim_files/12.png,./static/experiments/de1c/materials/stim_files/13.png,2,yes,,4479,,9,1
294,6,0,./static/experiments/de1c/materials/stim_files/6.png,./static/experiments/de1c/materials/stim_files/16.png,2,yes,,878,,9,1
295,7,0,./static/experiments/de1c/materials/stim_files/2.png,./static/experiments/de1c/materials/stim_files/12.png,2,yes,,1293,,9,1
296,8,0,./static/experiments/de1c/materials/stim_files/10.png,./static/experiments/de1c/materials/stim_files/2.png,2,yes,,911,,9,1
297,9,0,./static/experiments/de1c/materials/stim_files/6.png,./static/experiments/de1c/materials/stim_files/11.png,2,yes,,675,,9,1
298,10,0,./static/experiments/de1c/materials/stim_files/9.png,./static/experiments/de1c/materials/stim_files/7.png,2,yes,,958,,9,1
299,11,0,./static/experiments/de1c/materials/stim_files/14.png,./static/experiments/de1c/materials/stim_files/5.png,2,yes,,611,,9,1
300,12,0,./static/experiments/de1c/materials/stim_files/8.png,./static/experiments/de1c/materials/stim_files/6.png,2,yes,,1531,,9,1
301,13,0,./static/experiments/de1c/materials/stim_files/12.png,./static/experiments/de1c/materials/stim_files/12.png,2,no,,1009,,9,1
302,14,0,./static/experiments/de1c/materials/stim_files/10.png,./static/experiments/de1c/materials/stim_files/7.png,2,yes,,827,,9,1
303,15,0,./static/experiments/de1c/materials/stim_files/10.png,./static/experiments/de1c/materials/stim_files/1.png,2,yes,,1227,,9,1
304,16,0,./static/experiments/de1c/materials/stim_files/13.png,./static/experiments/de1c/materials/stim_files/9.png,2,yes,,912,,9,1
305,17,0,./static/experiments/de1c/materials/stim_files/1.png,./static/experiments/de1c/materials/stim_files/16.png,2,yes,,809,,9,1
306,18,0,./static/experiments/de1c/materials/stim_files/4.png,./static/experiments/de1c/materials/stim_files/12.png,2,yes,,1030,,9,1
307,19,0,./static/experiments/de1c/materials/stim_files/1.png,./static/experiments/de1c/materials/stim_files/15.png,2,yes,,1142,,9,1
308,20,0,./static/experiments/de1c/materials/stim_files/16.png,./static/experiments/de1c/materials/stim_files/1.png,2,yes,,645,,9,1
309,21,0,./static/experiments/de1c/materials/stim_files/8.png,./static/experiments/de1c/materials/stim_files/11.png,2,yes,,1776,,9,1
310,22,0,./static/experiments/de1c/materials/stim_files/13.png,./static/experiments/de1c/materials/stim_files/1.png,2,yes,,811,,9,1
311,23,0,./static/experiments/de1c/materials/stim_files/2.png,./static/experiments/de1c/materials/stim_files/1.png,2,no,,1793,,9,1
312,24,0,./static/experiments/de1c/materials/stim_files/13.png,./static/experiments/de1c/materials/stim_files/2.png,2,yes,,861,,9,1
313,25,0,./static/experiments/de1c/materials/stim_files/8.png,./static/experiments/de1c/materials/stim_files/8.png,2,no,,1013,,9,1
314,26,0,./static/experiments/de1c/materials/stim_files/14.png,./static/experiments/de1c/materials/stim_files/10.png,2,yes,,861,,9,1
315,27,0,./static/experiments/de1c/materials/stim_files/6.png,./static/experiments/de1c/materials/stim_files/12.png,2,yes,,879,,9,1
316,28,0,./static/experiments/de1c/materials/stim_files/15.png,./static/experiments/de1c/materials/stim_files/10.png,2,yes,,815,,9,1
317,29,0,./static/experiments/de1c/materials/stim_files/14.png,./static/experiments/de1c/materials/stim_files/2.png,2,yes,,692,,9,1
318,30,0,./static/experiments/de1c/materials/stim_files/8.png,./static/experiments/de1c/materials/stim_files/14.png,2,yes,,781,,9,1
319,31,0,./static/experiments/de1c/materials/stim_files/14.png,./static/experiments/de1c/materials/stim_files/1.png,2,yes,,1428,,9,1
320,0,0,./static/experiments/de1c/materials/stim_files/8.png,./static/experiments/de1c/materials/stim_files/9.png,2,yes,,8878,,10,1
321,1,0,./static/experiments/de1c/materials/stim_files/3.png,./static/experiments/de1c/materials/stim_files/13.png,2,yes,,2631,,10,1
322,2,0,./static/experiments/de1c/materials/stim_files/2.png,./static/experiments/de1c/materials/stim_files/13.png,2,yes,,5762,,10,1
323,3,0,./static/experiments/de1c/materials/stim_files/14.png,./static/experiments/de1c/materials/stim_files/2.png,2,yes,,754,,10,1
324,4,0,./static/experiments/de1c/materials/stim_files/12.png,./static/experiments/de1c/materials/stim_files/4.png,2,yes,,707,,10,1
325,5,0,./static/experiments/de1c/materials/stim_files/16.png,./static/experiments/de1c/materials/stim_files/2.png,2,yes,,736,,10,1
326,6,0,./static/experiments/de1c/materials/stim_files/12.png,./static/experiments/de1c/materials/stim_files/12.png,2,no,,1007,,10,1
327,7,0,./static/experiments/de1c/materials/stim_files/11.png,./static/experiments/de1c/materials/stim_files/9.png,2,yes,,984,,10,1
328,8,0,./static/experiments/de1c/materials/stim_files/13.png,./static/experiments/de1c/materials/stim_files/12.png,2,yes,,3613,,10,1
329,9,0,./static/experiments/de1c/materials/stim_files/7.png,./static/experiments/de1c/materials/stim_files/1.png,2,yes,,1263,,10,1
330,10,0,./static/experiments/de1c/materials/stim_files/10.png,./static/experiments/de1c/materials/stim_files/10.png,2,no,,1055,,10,1
331,11,0,./static/experiments/de1c/materials/stim_files/5.png,./static/experiments/de1c/materials/stim_files/16.png,2,yes,,766,,10,1
332,12,0,./static/experiments/de1c/materials/stim_files/9.png,./static/experiments/de1c/materials/stim_files/2.png,2,yes,,1030,,10,1
333,13,0,./static/experiments/de1c/materials/stim_files/3.png,./static/experiments/de1c/materials/stim_files/6.png,2,yes,,1265,,10,1
334,14,0,./static/experiments/de1c/materials/stim_files/11.png,./static/experiments/de1c/materials/stim_files/2.png,2,yes,,837,,10,1
335,15,0,./static/experiments/de1c/materials/stim_files/4.png,./static/experiments/de1c/materials/stim_files/10.png,2,yes,,827,,10,1
336,16,0,./static/experiments/de1c/materials/stim_files/15.png,./static/experiments/de1c/materials/stim_files/2.png,2,yes,,734,,10,1
337,17,0,./static/experiments/de1c/materials/stim_files/15.png,./static/experiments/de1c/materials/stim_files/1.png,2,yes,,10681,,10,1
338,18,0,./static/experiments/de1c/materials/stim_files/16.png,./static/experiments/de1c/materials/stim_files/8.png,2,yes,,716,,10,1
339,19,0,./static/experiments/de1c/materials/stim_files/9.png,./static/experiments/de1c/materials/stim_files/14.png,2,yes,,640,,10,1
340,20,0,./static/experiments/de1c/materials/stim_files/13.png,./static/experiments/de1c/materials/stim_files/10.png,2,yes,,521,,10,1
341,21,0,./static/experiments/de1c/materials/stim_files/7.png,./static/experiments/de1c/materials/stim_files/14.png,2,yes,,444,,10,1
342,22,0,./static/experiments/de1c/materials/stim_files/15.png,./static/experiments/de1c/materials/stim_files/5.png,2,yes,,595,,10,1
343,23,0,./static/experiments/de1c/materials/stim_files/6.png,./static/experiments/de1c/materials/stim_files/10.png,2,yes,,603,,10,1
344,24,0,./static/experiments/de1c/materials/stim_files/1.png,./static/experiments/de1c/materials/stim_files/13.png,2,yes,,2395,,10,1
345,25,0,./static/experiments/de1c/materials/stim_files/14.png,./static/experiments/de1c/materials/stim_files/1.png,2,yes,,587,,10,1
346,26,0,./static/experiments/de1c/materials/stim_files/8.png,./static/experiments/de1c/materials/stim_files/12.png,2,yes,,662,,10,1
347,27,0,./static/experiments/de1c/materials/stim_files/1.png,./static/experiments/de1c/materials/stim_files/16.png,2,yes,,8746,,10,1
348,28,0,./static/experiments/de1c/materials/stim_files/7.png,./static/experiments/de1c/materials/stim_files/5.png,2,yes,,801,,10,1
349,29,0,./static/experiments/de1c/materials/stim_files/1.png,./static/experiments/de1c/materials/stim_files/16.png,2,yes,,748,,10,1
350,30,0,./static/experiments/de1c/materials/stim_files/8.png,./static/experiments/de1c/materials/stim_files/3.png,2,yes,,1315,,10,1
351,31,0,./static/experiments/de1c/materials/stim_files/1.png,./static/experiments/de1c/materials/stim_files/10.png,2,yes,,685,,10,1
352,0,0,./static/experiments/de1c/materials/stim_files/6.png,./static/experiments/de1c/materials/stim_files/16.png,2,yes,,5674,,11,1
353,1,0,./static/experiments/de1c/materials/stim_files/11.png,./static/experiments/de1c/materials/stim_files/4.png,2,yes,,1120,,11,1
354,2,0,./static/experiments/de1c/materials/stim_files/7.png,./static/experiments/de1c/materials/stim_files/10.png,2,yes,,1141,,11,1
355,3,0,./static/experiments/de1c/materials/stim_files/2.png,./static/experiments/de1c/materials/stim_files/13.png,2,yes,,839,,11,1
356,4,0,./static/experiments/de1c/materials/stim_files/1.png,./static/experiments/de1c/materials/stim_files/1.png,2,no,,741,,11,1
357,5,0,./static/experiments/de1c/materials/stim_files/9.png,./static/experiments/de1c/materials/stim_files/1.png,2,yes,,1115,,11,1
358,6,0,./static/experiments/de1c/materials/stim_files/16.png,./static/experiments/de1c/materials/stim_files/1.png,2,yes,,642,,11,1
359,7,0,./static/experiments/de1c/materials/stim_files/13.png,./static/experiments/de1c/materials/stim_files/11.png,2,yes,,1308,,11,1
360,8,0,./static/experiments/de1c/materials/stim_files/16.png,./static/experiments/de1c/materials/stim_files/11.png,2,yes,,685,,11,1
361,9,0,./static/experiments/de1c/materials/stim_files/2.png,./static/experiments/de1c/materials/stim_files/15.png,2,yes,,702,,11,1
362,10,0,./static/experiments/de1c/materials/stim_files/4.png,./static/experiments/de1c/materials/stim_files/8.png,2,yes,,1602,,11,1
363,11,0,./static/experiments/de1c/materials/stim_files/15.png,./static/experiments/de1c/materials/stim_files/1.png,2,yes,,902,,11,1
364,12,0,./static/experiments/de1c/materials/stim_files/5.png,./static/experiments/de1c/materials/stim_files/1.png,2,yes,,645,,11,1
365,13,0,./static/experiments/de1c/materials/stim_files/3.png,./static/experiments/de1c/materials/stim_files/11.png,2,yes,,726,,11,1
366,14,0,./static/experiments/de1c/materials/stim_files/2.png,./static/experiments/de1c/materials/stim_files/11.png,2,yes,,1357,,11,1
367,15,0,./static/experiments/de1c/materials/stim_files/3.png,./static/experiments/de1c/materials/stim_files/16.png,2,yes,,726,,11,1
368,16,0,./static/experiments/de1c/materials/stim_files/12.png,./static/experiments/de1c/materials/stim_files/5.png,2,yes,,645,,11,1
369,17,0,./static/experiments/de1c/materials/stim_files/16.png,./static/experiments/de1c/materials/stim_files/1.png,2,yes,,634,,11,1
370,18,0,./static/experiments/de1c/materials/stim_files/15.png,./static/experiments/de1c/materials/stim_files/15.png,2,no,,1021,,11,1
371,19,0,./static/experiments/de1c/materials/stim_files/1.png,./static/experiments/de1c/materials/stim_files/2.png,2,no,,1034,,11,1
372,20,0,./static/experiments/de1c/materials/stim_files/1.png,./static/experiments/de1c/materials/stim_files/3.png,2,no,,1741,,11,1
373,21,0,./static/experiments/de1c/materials/stim_files/12.png,./static/experiments/de1c/materials/stim_files/6.png,2,yes,,628,,11,1
374,22,0,./static/experiments/de1c/materials/stim_files/2.png,./static/experiments/de1c/materials/stim_files/12.png,2,yes,,723,,11,1
375,23,0,./static/experiments/de1c/materials/stim_files/15.png,./static/experiments/de1c/materials/stim_files/6.png,2,yes,,553,,11,1
376,24,0,./static/experiments/de1c/materials/stim_files/11.png,./static/experiments/de1c/materials/stim_files/6.png,2,yes,,1887,,11,1
377,25,0,./static/experiments/de1c/materials/stim_files/16.png,./static/experiments/de1c/materials/stim_files/4.png,2,yes,,554,,11,1
378,26,0,./static/experiments/de1c/materials/stim_files/3.png,./static/experiments/de1c/materials/stim_files/4.png,2,no,,1060,,11,1
379,27,0,./static/experiments/de1c/materials/stim_files/2.png,./static/experiments/de1c/materials/stim_files/16.png,2,yes,,779,,11,1
380,28,0,./static/experiments/de1c/materials/stim_files/1.png,./static/experiments/de1c/materials/stim_files/12.png,2,yes,,610,,11,1
381,29,0,./static/experiments/de1c/materials/stim_files/15.png,./static/experiments/de1c/materials/stim_files/3.png,2,yes,,959,,11,1
382,30,0,./static/experiments/de1c/materials/stim_files/9.png,./static/experiments/de1c/materials/stim_files/15.png,2,no,,1020,,11,1
383,31,0,./static/experiments/de1c/materials/stim_files/9.png,./static/experiments/de1c/materials/stim_files/12.png,2,no,,1521,,11,1
384,0,0,./static/experiments/de1c/materials/stim_files/4.png,./static/experiments/de1c/materials/stim_files/15.png,2,no,,18645,,12,4
385,1,0,./static/experiments/de1c/materials/stim_files/13.png,./static/experiments/de1c/materials/stim_files/16.png,2,no,,3123,,12,4
386,2,0,./static/experiments/de1c/materials/stim_files/6.png,./static/experiments/de1c/materials/stim_files/13.png,2,no,,3037,,12,4
387,3,0,./static/experiments/de1c/materials/stim_files/16.png,./static/experiments/de1c/materials/stim_files/1.png,2,yes,,1804,,12,4
388,4,0,./static/experiments/de1c/materials/stim_files/5.png,./static/experiments/de1c/materials/stim_files/16.png,2,no,,4247,,12,4
389,5,0,./static/experiments/de1c/materials/stim_files/2.png,./static/experiments/de1c/materials/stim_files/12.png,2,yes,,2430,,12,4
390,6,0,./static/experiments/de1c/materials/stim_files/5.png,./static/experiments/de1c/materials/stim_files/13.png,2,no,,3022,,12,4
391,7,0,./static/experiments/de1c/materials/stim_files/15.png,./static/experiments/de1c/materials/stim_files/2.png,2,yes,,2318,,12,4
392,8,0,./static/experiments/de1c/materials/stim_files/3.png,./static/experiments/de1c/materials/stim_files/10.png,2,no,,2142,,12,4
393,9,0,./static/experiments/de1c/materials/stim_files/16.png,./static/experiments/de1c/materials/stim_files/3.png,2,yes,,1844,,12,4
394,10,0,./static/experiments/de1c/materials/stim_files/2.png,./static/experiments/de1c/materials/stim_files/10.png,2,yes,,1672,,12,4
395,11,0,./static/experiments/de1c/materials/stim_files/2.png,./static/experiments/de1c/materials/stim_files/16.png,2,yes,,1306,,12,4
396,12,0,./static/experiments/de1c/materials/stim_files/1.png,./static/experiments/de1c/materials/stim_files/3.png,2,no,,2781,,12,4
397,13,0,./static/experiments/de1c/materials/stim_files/9.png,./static/experiments/de1c/materials/stim_files/10.png,2,no,,2472,,12,4
398,14,0,./static/experiments/de1c/materials/stim_files/14.png,./static/experiments/de1c/materials/stim_files/2.png,2,yes,,1569,,12,4
399,15,0,./static/experiments/de1c/materials/stim_files/4.png,./static/experiments/de1c/materials/stim_files/8.png,2,no,,3566,,12,4
400,16,0,./static/experiments/de1c/materials/stim_files/5.png,./static/experiments/de1c/materials/stim_files/11.png,2,no,,32835,,12,4
401,17,0,./static/experiments/de1c/materials/stim_files/11.png,./static/experiments/de1c/materials/stim_files/9.png,2,no,,915,,12,4
402,18,0,./static/experiments/de1c/materials/stim_files/14.png,./static/experiments/de1c/materials/stim_files/13.png,2,no,,1589,,12,4
403,19,0,./static/experiments/de1c/materials/stim_files/10.png,./static/experiments/de1c/materials/stim_files/5.png,2,no,,941,,12,4
404,20,0,./static/experiments/de1c/materials/stim_files/7.png,./static/experiments/de1c/materials/stim_files/7.png,2,yes,,3505,,12,4
405,21,0,./static/experiments/de1c/materials/stim_files/1.png,./static/experiments/de1c/materials/stim_files/16.png,2,yes,,1543,,12,4
406,22,0,./static/experiments/de1c/materials/stim_files/3.png,./static/experiments/de1c/materials/stim_files/9.png,2,no,,1588,,12,4
407,23,0,./static/experiments/de1c/materials/stim_files/7.png,./static/experiments/de1c/materials/stim_files/16.png,2,no,,2846,,12,4
408,24,0,./static/experiments/de1c/materials/stim_files/3.png,./static/experiments/de1c/materials/stim_files/15.png,2,yes,,3230,,12,4
409,25,0,./static/experiments/de1c/materials/stim_files/6.png,./static/experiments/de1c/materials/stim_files/15.png,2,no,,1707,,12,4
410,26,0,./static/experiments/de1c/materials/stim_files/7.png,./static/experiments/de1c/materials/stim_files/3.png,2,no,,3671,,12,4
411,27,0,./static/experiments/de1c/materials/stim_files/15.png,./static/experiments/de1c/materials/stim_files/12.png,2,no,,1559,,12,4
412,28,0,./static/experiments/de1c/materials/stim_files/15.png,./static/experiments/de1c/materials/stim_files/10.png,2,no,,1163,,12,4
413,29,0,./static/experiments/de1c/materials/stim_files/11.png,./static/experiments/de1c/materials/stim_files/11.png,2,yes,,3070,,12,4
414,30,0,./static/experiments/de1c/materials/stim_files/16.png,./static/experiments/de1c/materials/stim_files/6.png,2,no,,1371,,12,4
415,31,0,./static/experiments/de1c/materials/stim_files/15.png,./static/experiments/de1c/materials/stim_files/1.png,2,yes,,1661,,12,4
416,0,0,./static/experiments/de1c/materials/stim_files/12.png,./static/experiments/de1c/materials/stim_files/14.png,2,no,,19503,,13,1
417,1,0,./static/experiments/de1c/materials/stim_files/14.png,./static/experiments/de1c/materials/stim_files/8.png,2,yes,,7742,,13,1
418,2,0,./static/experiments/de1c/materials/stim_files/7.png,./static/experiments/de1c/materials/stim_files/6.png,2,yes,,5113,,13,1
419,3,0,./static/experiments/de1c/materials/stim_files/3.png,./static/experiments/de1c/materials/stim_files/15.png,2,yes,,1373,,13,1
420,4,0,./static/experiments/de1c/materials/stim_files/7.png,./static/experiments/de1c/materials/stim_files/10.png,2,yes,,1083,,13,1
421,5,0,./static/experiments/de1c/materials/stim_files/13.png,./static/experiments/de1c/materials/stim_files/8.png,2,yes,,845,,13,1
422,6,0,./static/experiments/de1c/materials/stim_files/5.png,./static/experiments/de1c/materials/stim_files/16.png,2,yes,,833,,13,1
423,7,0,./static/experiments/de1c/materials/stim_files/13.png,./static/experiments/de1c/materials/stim_files/14.png,2,no,,1661,,13,1
424,8,0,./static/experiments/de1c/materials/stim_files/6.png,./static/experiments/de1c/materials/stim_files/9.png,2,no,,2025,,13,1
425,9,0,./static/experiments/de1c/materials/stim_files/4.png,./static/experiments/de1c/materials/stim_files/9.png,2,yes,,1063,,13,1
426,10,0,./static/experiments/de1c/materials/stim_files/15.png,./static/experiments/de1c/materials/stim_files/1.png,2,yes,,877,,13,1
427,11,0,./static/experiments/de1c/materials/stim_files/5.png,./static/experiments/de1c/materials/stim_files/14.png,2,yes,,811,,13,1
428,12,0,./static/experiments/de1c/materials/stim_files/3.png,./static/experiments/de1c/materials/stim_files/9.png,2,yes,,765,,13,1
429,13,0,./static/experiments/de1c/materials/stim_files/2.png,./static/experiments/de1c/materials/stim_files/16.png,2,yes,,814,,13,1
430,14,0,./static/experiments/de1c/materials/stim_files/8.png,./static/experiments/de1c/materials/stim_files/15.png,2,yes,,782,,13,1
431,15,0,./static/experiments/de1c/materials/stim_files/1.png,./static/experiments/de1c/materials/stim_files/11.png,2,yes,,753,,13,1
432,16,0,./static/experiments/de1c/materials/stim_files/14.png,./static/experiments/de1c/materials/stim_files/1.png,2,yes,,608,,13,1
433,17,0,./static/experiments/de1c/materials/stim_files/4.png,./static/experiments/de1c/materials/stim_files/2.png,2,yes,,675,,13,1
434,18,0,./static/experiments/de1c/materials/stim_files/3.png,./static/experiments/de1c/materials/stim_files/11.png,2,yes,,741,,13,1
435,19,0,./static/experiments/de1c/materials/stim_files/1.png,./static/experiments/de1c/materials/stim_files/16.png,2,yes,,848,,13,1
436,20,0,./static/experiments/de1c/materials/stim_files/16.png,./static/experiments/de1c/materials/stim_files/1.png,2,yes,,886,,13,1
437,21,0,./static/experiments/de1c/materials/stim_files/14.png,./static/experiments/de1c/materials/stim_files/14.png,2,no,,1229,,13,1
438,22,0,./static/experiments/de1c/materials/stim_files/6.png,./static/experiments/de1c/materials/stim_files/15.png,2,yes,,824,,13,1
439,23,0,./static/experiments/de1c/materials/stim_files/7.png,./static/experiments/de1c/materials/stim_files/3.png,2,yes,,901,,13,1
440,24,0,./static/experiments/de1c/materials/stim_files/14.png,./static/experiments/de1c/materials/stim_files/4.png,2,yes,,839,,13,1
441,25,0,./static/experiments/de1c/materials/stim_files/16.png,./static/experiments/de1c/materials/stim_files/4.png,2,yes,,733,,13,1
442,26,0,./static/experiments/de1c/materials/stim_files/6.png,./static/experiments/de1c/materials/stim_files/6.png,2,yes,,571,,13,1
443,27,0,./static/experiments/de1c/materials/stim_files/2.png,./static/experiments/de1c/materials/stim_files/15.png,2,yes,,824,,13,1
444,28,0,./static/experiments/de1c/materials/stim_files/2.png,./static/experiments/de1c/materials/stim_files/13.png,2,yes,,762,,13,1
445,29,0,./static/experiments/de1c/materials/stim_files/8.png,./static/experiments/de1c/materials/stim_files/4.png,2,yes,,743,,13,1
446,30,0,./static/experiments/de1c/materials/stim_files/16.png,./static/experiments/de1c/materials/stim_files/9.png,2,yes,,741,,13,1
447,31,0,./static/experiments/de1c/materials/stim_files/4.png,./static/experiments/de1c/materials/stim_files/12.png,2,yes,,698,,13,1
448,0,0,./static/experiments/de1c/materials/stim_files/16.png,./static/experiments/de1c/materials/stim_files/9.png,2,no,,8504,,14,4
449,1,0,./static/experiments/de1c/materials/stim_files/15.png,./static/experiments/de1c/materials/stim_files/3.png,2,yes,,1688,,14,4
450,2,0,./static/experiments/de1c/materials/stim_files/16.png,./static/experiments/de1c/materials/stim_files/12.png,2,no,,1668,,14,4
451,3,0,./static/experiments/de1c/materials/stim_files/4.png,./static/experiments/de1c/materials/stim_files/6.png,2,no,,792,,14,4
452,4,0,./static/experiments/de1c/materials/stim_files/1.png,./static/experiments/de1c/materials/stim_files/10.png,2,yes,,888,,14,4
453,5,0,./static/experiments/de1c/materials/stim_files/6.png,./static/experiments/de1c/materials/stim_files/1.png,2,no,,913,,14,4
454,6,0,./static/experiments/de1c/materials/stim_files/15.png,./static/experiments/de1c/materials/stim_files/15.png,2,no,,1227,,14,4
455,7,0,./static/experiments/de1c/materials/stim_files/11.png,./static/experiments/de1c/materials/stim_files/10.png,2,no,,782,,14,4
456,8,0,./static/experiments/de1c/materials/stim_files/16.png,./static/experiments/de1c/materials/stim_files/10.png,2,no,,738,,14,4
457,9,0,./static/experiments/de1c/materials/stim_files/9.png,./static/experiments/de1c/materials/stim_files/4.png,2,no,,1028,,14,4
458,10,0,./static/experiments/de1c/materials/stim_files/16.png,./static/experiments/de1c/materials/stim_files/6.png,2,yes,,662,,14,4
459,11,0,./static/experiments/de1c/materials/stim_files/16.png,./static/experiments/de1c/materials/stim_files/3.png,2,yes,,564,,14,4
460,12,0,./static/experiments/de1c/materials/stim_files/15.png,./static/experiments/de1c/materials/stim_files/2.png,2,yes,,464,,14,4
461,13,0,./static/experiments/de1c/materials/stim_files/13.png,./static/experiments/de1c/materials/stim_files/2.png,2,yes,,476,,14,4
462,14,0,./static/experiments/de1c/materials/stim_files/14.png,./static/experiments/de1c/materials/stim_files/6.png,2,yes,,4324,,14,4
463,15,0,./static/experiments/de1c/materials/stim_files/10.png,./static/experiments/de1c/materials/stim_files/7.png,2,no,,644,,14,4
464,16,0,./static/experiments/de1c/materials/stim_files/11.png,./static/experiments/de1c/materials/stim_files/1.png,2,yes,,857,,14,4
465,17,0,./static/experiments/de1c/materials/stim_files/5.png,./static/experiments/de1c/materials/stim_files/12.png,2,yes,,2071,,14,4
466,18,0,./static/experiments/de1c/materials/stim_files/2.png,./static/experiments/de1c/materials/stim_files/16.png,2,yes,,1032,,14,4
467,19,0,./static/experiments/de1c/materials/stim_files/3.png,./static/experiments/de1c/materials/stim_files/12.png,2,yes,,459,,14,4
468,20,0,./static/experiments/de1c/materials/stim_files/16.png,./static/experiments/de1c/materials/stim_files/1.png,2,yes,,664,,14,4
469,21,0,./static/experiments/de1c/materials/stim_files/16.png,./static/experiments/de1c/materials/stim_files/4.png,2,yes,,411,,14,4
470,22,0,./static/experiments/de1c/materials/stim_files/16.png,./static/experiments/de1c/materials/stim_files/15.png,2,no,,606,,14,4
471,23,0,./static/experiments/de1c/materials/stim_files/3.png,./static/experiments/de1c/materials/stim_files/6.png,2,no,,1819,,14,4
472,24,0,./static/experiments/de1c/materials/stim_files/14.png,./static/experiments/de1c/materials/stim_files/14.png,2,no,,724,,14,4
473,25,0,./static/experiments/de1c/materials/stim_files/15.png,./static/experiments/de1c/materials/stim_files/4.png,2,yes,,1137,,14,4
474,26,0,./static/experiments/de1c/materials/stim_files/10.png,./static/experiments/de1c/materials/stim_files/8.png,2,no,,994,,14,4
475,27,0,./static/experiments/de1c/materials/stim_files/9.png,./static/experiments/de1c/materials/stim_files/15.png,2,no,,1827,,14,4
476,28,0,./static/experiments/de1c/materials/stim_files/2.png,./static/experiments/de1c/materials/stim_files/16.png,2,yes,,613,,14,4
477,29,0,./static/experiments/de1c/materials/stim_files/1.png,./static/experiments/de1c/materials/stim_files/16.png,2,yes,,708,,14,4
478,30,0,./static/experiments/de1c/materials/stim_files/12.png,./static/experiments/de1c/materials/stim_files/8.png,2,no,,759,,14,4
479,31,0,./static/experiments/de1c/materials/stim_files/4.png,./static/experiments/de1c/materials/stim_files/12.png,2,yes,,4063,,14,4
480,0,0,./static/experiments/de1c/materials/stim_files/14.png,./static/experiments/de1c/materials/stim_files/2.png,2,yes,,4282,,15,1
481,1,0,./static/experiments/de1c/materials/stim_files/1.png,./static/experiments/de1c/materials/stim_files/14.png,2,yes,,746,,15,1
482,2,0,./static/experiments/de1c/materials/stim_files/3.png,./static/experiments/de1c/materials/stim_files/1.png,2,yes,,1158,,15,1
483,3,0,./static/experiments/de1c/materials/stim_files/1.png,./static/experiments/de1c/materials/stim_files/12.png,2,yes,,702,,15,1
484,4,0,./static/experiments/de1c/materials/stim_files/3.png,./static/experiments/de1c/materials/stim_files/14.png,2,yes,,725,,15,1
485,5,0,./static/experiments/de1c/materials/stim_files/16.png,./static/experiments/de1c/materials/stim_files/6.png,2,yes,,650,,15,1
486,6,0,./static/experiments/de1c/materials/stim_files/9.png,./static/experiments/de1c/materials/stim_files/7.png,2,yes,,941,,15,1
487,7,0,./static/experiments/de1c/materials/stim_files/1.png,./static/experiments/de1c/materials/stim_files/13.png,2,yes,,789,,15,1
488,8,0,./static/experiments/de1c/materials/stim_files/1.png,./static/experiments/de1c/materials/stim_files/15.png,2,yes,,788,,15,1
489,9,0,./static/experiments/de1c/materials/stim_files/3.png,./static/experiments/de1c/materials/stim_files/8.png,2,yes,,739,,15,1
490,10,0,./static/experiments/de1c/materials/stim_files/13.png,./static/experiments/de1c/materials/stim_files/16.png,2,yes,,893,,15,1
491,11,0,./static/experiments/de1c/materials/stim_files/15.png,./static/experiments/de1c/materials/stim_files/8.png,2,yes,,802,,15,1
492,12,0,./static/experiments/de1c/materials/stim_files/2.png,./static/experiments/de1c/materials/stim_files/8.png,2,yes,,611,,15,1
493,13,0,./static/experiments/de1c/materials/stim_files/8.png,./static/experiments/de1c/materials/stim_files/8.png,2,no,,1080,,15,1
494,14,0,./static/experiments/de1c/materials/stim_files/7.png,./static/experiments/de1c/materials/stim_files/13.png,2,yes,,742,,15,1
495,15,0,./static/experiments/de1c/materials/stim_files/16.png,./static/experiments/de1c/materials/stim_files/7.png,2,yes,,734,,15,1
496,16,0,./static/experiments/de1c/materials/stim_files/14.png,./static/experiments/de1c/materials/stim_files/6.png,2,yes,,679,,15,1
497,17,0,./static/experiments/de1c/materials/stim_files/15.png,./static/experiments/de1c/materials/stim_files/5.png,2,yes,,539,,15,1
498,18,0,./static/experiments/de1c/materials/stim_files/13.png,./static/experiments/de1c/materials/stim_files/8.png,2,yes,,464,,15,1
499,19,0,./static/experiments/de1c/materials/stim_files/16.png,./static/experiments/de1c/materials/stim_files/1.png,2,yes,,820,,15,1
500,20,0,./static/experiments/de1c/materials/stim_files/14.png,./static/experiments/de1c/materials/stim_files/11.png,2,yes,,26840,,15,1
501,21,0,./static/experiments/de1c/materials/stim_files/13.png,./static/experiments/de1c/materials/stim_files/13.png,2,no,,1072,,15,1
502,22,0,./static/experiments/de1c/materials/stim_files/15.png,./static/experiments/de1c/materials/stim_files/11.png,2,yes,,795,,15,1
503,23,0,./static/experiments/de1c/materials/stim_files/16.png,./static/experiments/de1c/materials/stim_files/1.png,2,yes,,815,,15,1
504,24,0,./static/experiments/de1c/materials/stim_files/4.png,./static/experiments/de1c/materials/stim_files/13.png,2,yes,,624,,15,1
505,25,0,./static/experiments/de1c/materials/stim_files/6.png,./static/experiments/de1c/materials/stim_files/13.png,2,yes,,874,,15,1
506,26,0,./static/experiments/de1c/materials/stim_files/15.png,./static/experiments/de1c/materials/stim_files/11.png,2,yes,,700,,15,1
507,27,0,./static/experiments/de1c/materials/stim_files/2.png,./static/experiments/de1c/materials/stim_files/16.png,2,yes,,754,,15,1
508,28,0,./static/experiments/de1c/materials/stim_files/11.png,./static/experiments/de1c/materials/stim_files/12.png,2,yes,,1582,,15,1
509,29,0,./static/experiments/de1c/materials/stim_files/10.png,./static/experiments/de1c/materials/stim_files/9.png,2,yes,,859,,15,1
510,30,0,./static/experiments/de1c/materials/stim_files/3.png,./static/experiments/de1c/materials/stim_files/11.png,2,yes,,841,,15,1
511,31,0,./static/experiments/de1c/materials/stim_files/15.png,./static/experiments/de1c/materials/stim_files/2.png,2,yes,,856,,15,1
512,0,0,./static/experiments/de1c/materials/stim_files/16.png,./static/experiments/de1c/materials/stim_files/1.png,2,yes,,4230,,16,4
513,1,0,./static/experiments/de1c/materials/stim_files/4.png,./static/experiments/de1c/materials/stim_files/8.png,2,no,,816,,16,4
514,2,0,./static/experiments/de1c/materials/stim_files/11.png,./static/experiments/de1c/materials/stim_files/2.png,2,yes,,1394,,16,4
515,3,0,./static/experiments/de1c/materials/stim_files/4.png,./static/experiments/de1c/materials/stim_files/16.png,2,yes,,877,,16,4
516,4,0,./static/experiments/de1c/materials/stim_files/16.png,./static/experiments/de1c/materials/stim_files/3.png,2,yes,,957,,16,4
517,5,0,./static/experiments/de1c/materials/stim_files/14.png,./static/experiments/de1c/materials/stim_files/8.png,2,no,,2804,,16,4
518,6,0,./static/experiments/de1c/materials/stim_files/10.png,./static/experiments/de1c/materials/stim_files/3.png,2,no,,1121,,16,4
519,7,0,./static/experiments/de1c/materials/stim_files/16.png,./static/experiments/de1c/materials/stim_files/1.png,2,yes,,619,,16,4
520,8,0,./static/experiments/de1c/materials/stim_files/16.png,./static/experiments/de1c/materials/stim_files/6.png,2,yes,,527,,16,4
521,9,0,./static/experiments/de1c/materials/stim_files/6.png,./static/experiments/de1c/materials/stim_files/13.png,2,no,,5103,,16,4
522,10,0,./static/experiments/de1c/materials/stim_files/8.png,./static/experiments/de1c/materials/stim_files/16.png,2,yes,,1080,,16,4
523,11,0,./static/experiments/de1c/materials/stim_files/12.png,./static/experiments/de1c/materials/stim_files/2.png,2,no,,714,,16,4
524,12,0,./static/experiments/de1c/materials/stim_files/2.png,./static/experiments/de1c/materials/stim_files/13.png,2,yes,,759,,16,4
525,13,0,./static/experiments/de1c/materials/stim_files/1.png,./static/experiments/de1c/materials/stim_files/15.png,2,yes,,708,,16,4
526,14,0,./static/experiments/de1c/materials/stim_files/8.png,./static/experiments/de1c/materials/stim_files/13.png,2,no,,1091,,16,4
527,15,0,./static/experiments/de1c/materials/stim_files/2.png,./static/experiments/de1c/materials/stim_files/2.png,2,no,,886,,16,4
528,16,0,./static/experiments/de1c/materials/stim_files/15.png,./static/experiments/de1c/materials/stim_files/1.png,2,yes,,738,,16,4
529,17,0,./static/experiments/de1c/materials/stim_files/10.png,./static/experiments/de1c/materials/stim_files/8.png,2,no,,913,,16,4
530,18,0,./static/experiments/de1c/materials/stim_files/13.png,./static/experiments/de1c/materials/stim_files/1.png,2,yes,,637,,16,4
531,19,0,./static/experiments/de1c/materials/stim_files/6.png,./static/experiments/de1c/materials/stim_files/14.png,2,no,,7469,,16,4
532,20,0,./static/experiments/de1c/materials/stim_files/5.png,./static/experiments/de1c/materials/stim_files/2.png,2,no,,847,,16,4
533,21,0,./static/experiments/de1c/materials/stim_files/6.png,./static/experiments/de1c/materials/stim_files/5.png,2,no,,988,,16,4
534,22,0,./static/experiments/de1c/materials/stim_files/2.png,./static/experiments/de1c/materials/stim_files/13.png,2,yes,,716,,16,4
535,23,0,./static/experiments/de1c/materials/stim_files/5.png,./static/experiments/de1c/materials/stim_files/1.png,2,no,,976,,16,4
536,24,0,./static/experiments/de1c/materials/stim_files/15.png,./static/experiments/de1c/materials/stim_files/2.png,2,yes,,844,,16,4
537,25,0,./static/experiments/de1c/materials/stim_files/10.png,./static/experiments/de1c/materials/stim_files/4.png,2,no,,1515,,16,4
538,26,0,./static/experiments/de1c/materials/stim_files/16.png,./static/experiments/de1c/materials/stim_files/14.png,2,no,,794,,16,4
539,27,0,./static/experiments/de1c/materials/stim_files/1.png,./static/experiments/de1c/materials/stim_files/10.png,2,yes,,1074,,16,4
540,28,0,./static/experiments/de1c/materials/stim_files/9.png,./static/experiments/de1c/materials/stim_files/10.png,2,no,,1084,,16,4
541,29,0,./static/experiments/de1c/materials/stim_files/11.png,./static/experiments/de1c/materials/stim_files/6.png,2,no,,897,,16,4
542,30,0,./static/experiments/de1c/materials/stim_files/16.png,./static/experiments/de1c/materials/stim_files/16.png,2,yes,,645,,16,4
543,31,0,./static/experiments/de1c/materials/stim_files/1.png,./static/experiments/de1c/materials/stim_files/4.png,2,no,,891,,16,4
544,0,0,./static/experiments/de1c/materials/stim_files/14.png,./static/experiments/de1c/materials/stim_files/2.png,2,yes,,4171,,17,2
545,1,0,./static/experiments/de1c/materials/stim_files/9.png,./static/experiments/de1c/materials/stim_files/9.png,2,no,,2856,,17,2
546,2,0,./static/experiments/de1c/materials/stim_files/9.png,./static/experiments/de1c/materials/stim_files/15.png,2,yes,,1272,,17,2
547,3,0,./static/experiments/de1c/materials/stim_files/15.png,./static/experiments/de1c/materials/stim_files/4.png,2,yes,,931,,17,2
548,4,0,./static/experiments/de1c/materials/stim_files/15.png,./static/experiments/de1c/materials/stim_files/2.png,2,yes,,710,,17,2
549,5,0,./static/experiments/de1c/materials/stim_files/1.png,./static/experiments/de1c/materials/stim_files/16.png,2,yes,,740,,17,2
550,6,0,./static/experiments/de1c/materials/stim_files/2.png,./static/experiments/de1c/materials/stim_files/11.png,2,yes,,828,,17,2
551,7,0,./static/experiments/de1c/materials/stim_files/2.png,./static/experiments/de1c/materials/stim_files/16.png,2,yes,,752,,17,2
552,8,0,./static/experiments/de1c/materials/stim_files/6.png,./static/experiments/de1c/materials/stim_files/4.png,2,no,,1806,,17,2
553,9,0,./static/experiments/de1c/materials/stim_files/7.png,./static/experiments/de1c/materials/stim_files/5.png,2,no,,929,,17,2
554,10,0,./static/experiments/de1c/materials/stim_files/16.png,./static/experiments/de1c/materials/stim_files/10.png,2,yes,,1095,,17,2
555,11,0,./static/experiments/de1c/materials/stim_files/2.png,./static/experiments/de1c/materials/stim_files/16.png,2,yes,,808,,17,2
556,12,0,./static/experiments/de1c/materials/stim_files/3.png,./static/experiments/de1c/materials/stim_files/14.png,2,yes,,781,,17,2
557,13,0,./static/experiments/de1c/materials/stim_files/12.png,./static/experiments/de1c/materials/stim_files/5.png,2,yes,,795,,17,2
558,14,0,./static/experiments/de1c/materials/stim_files/11.png,./static/experiments/de1c/materials/stim_files/3.png,2,yes,,524,,17,2
559,15,0,./static/experiments/de1c/materials/stim_files/10.png,./static/experiments/de1c/materials/stim_files/6.png,2,no,,1080,,17,2
560,16,0,./static/experiments/de1c/materials/stim_files/13.png,./static/experiments/de1c/materials/stim_files/5.png,2,yes,,671,,17,2
561,17,0,./static/experiments/de1c/materials/stim_files/12.png,./static/experiments/de1c/materials/stim_files/15.png,2,no,,940,,17,2
562,18,0,./static/experiments/de1c/materials/stim_files/3.png,./static/experiments/de1c/materials/stim_files/13.png,2,yes,,753,,17,2
563,19,0,./static/experiments/de1c/materials/stim_files/14.png,./static/experiments/de1c/materials/stim_files/4.png,2,yes,,693,,17,2
564,20,0,./static/experiments/de1c/materials/stim_files/14.png,./static/experiments/de1c/materials/stim_files/9.png,2,no,,989,,17,2
565,21,0,./static/experiments/de1c/materials/stim_files/1.png,./static/experiments/de1c/materials/stim_files/14.png,2,yes,,748,,17,2
566,22,0,./static/experiments/de1c/materials/stim_files/14.png,./static/experiments/de1c/materials/stim_files/2.png,2,yes,,750,,17,2
567,23,0,./static/experiments/de1c/materials/stim_files/8.png,./static/experiments/de1c/materials/stim_files/9.png,2,no,,717,,17,2
568,24,0,./static/experiments/de1c/materials/stim_files/5.png,./static/experiments/de1c/materials/stim_files/9.png,2,no,,1025,,17,2
569,25,0,./static/experiments/de1c/materials/stim_files/16.png,./static/experiments/de1c/materials/stim_files/1.png,2,yes,,634,,17,2
570,26,0,./static/experiments/de1c/materials/stim_files/12.png,./static/experiments/de1c/materials/stim_files/3.png,2,yes,,704,,17,2
571,27,0,./static/experiments/de1c/materials/stim_files/5.png,./static/experiments/de1c/materials/stim_files/5.png,2,no,,778,,17,2
572,28,0,./static/experiments/de1c/materials/stim_files/9.png,./static/experiments/de1c/materials/stim_files/16.png,2,yes,,1778,,17,2
573,29,0,./static/experiments/de1c/materials/stim_files/4.png,./static/experiments/de1c/materials/stim_files/3.png,2,no,,850,,17,2
574,30,0,./static/experiments/de1c/materials/stim_files/13.png,./static/experiments/de1c/materials/stim_files/16.png,2,no,,903,,17,2
575,31,0,./static/experiments/de1c/materials/stim_files/7.png,./static/experiments/de1c/materials/stim_files/12.png,2,yes,,1143,,17,2
576,0,0,./static/experiments/de1c/materials/stim_files/4.png,./static/experiments/de1c/materials/stim_files/14.png,2,yes,,3082,,18,2
577,1,0,./static/experiments/de1c/materials/stim_files/6.png,./static/experiments/de1c/materials/stim_files/8.png,2,no,,1182,,18,2
578,2,0,./static/experiments/de1c/materials/stim_files/3.png,./static/experiments/de1c/materials/stim_files/3.png,2,yes,,3107,,18,2
579,3,0,./static/experiments/de1c/materials/stim_files/3.png,./static/experiments/de1c/materials/stim_files/10.png,2,yes,,1142,,18,2
580,4,0,./static/experiments/de1c/materials/stim_files/16.png,./static/experiments/de1c/materials/stim_files/5.png,2,yes,,759,,18,2
581,5,0,./static/experiments/de1c/materials/stim_files/15.png,./static/experiments/de1c/materials/stim_files/7.png,2,yes,,685,,18,2
582,6,0,./static/experiments/de1c/materials/stim_files/2.png,./static/experiments/de1c/materials/stim_files/16.png,2,yes,,791,,18,2
583,7,0,./static/experiments/de1c/materials/stim_files/2.png,./static/experiments/de1c/materials/stim_files/14.png,2,yes,,611,,18,2
584,8,0,./static/experiments/de1c/materials/stim_files/13.png,./static/experiments/de1c/materials/stim_files/8.png,2,yes,,710,,18,2
585,9,0,./static/experiments/de1c/materials/stim_files/12.png,./static/experiments/de1c/materials/stim_files/1.png,2,yes,,1443,,18,2
586,10,0,./static/experiments/de1c/materials/stim_files/1.png,./static/experiments/de1c/materials/stim_files/14.png,2,yes,,1935,,18,2
587,11,0,./static/experiments/de1c/materials/stim_files/16.png,./static/experiments/de1c/materials/stim_files/4.png,2,yes,,716,,18,2
588,12,0,./static/experiments/de1c/materials/stim_files/10.png,./static/experiments/de1c/materials/stim_files/1.png,2,yes,,987,,18,2
589,13,0,./static/experiments/de1c/materials/stim_files/5.png,./static/experiments/de1c/materials/stim_files/15.png,2,yes,,589,,18,2
590,14,0,./static/experiments/de1c/materials/stim_files/14.png,./static/experiments/de1c/materials/stim_files/14.png,2,no,,1370,,18,2
591,15,0,./static/experiments/de1c/materials/stim_files/13.png,./static/experiments/de1c/materials/stim_files/7.png,2,yes,,1798,,18,2
592,16,0,./static/experiments/de1c/materials/stim_files/5.png,./static/experiments/de1c/materials/stim_files/4.png,2,no,,911,,18,2
593,17,0,./static/experiments/de1c/materials/stim_files/7.png,./static/experiments/de1c/materials/stim_files/10.png,2,no,,944,,18,2
594,18,0,./static/experiments/de1c/materials/stim_files/2.png,./static/experiments/de1c/materials/stim_files/7.png,2,no,,992,,18,2
595,19,0,./static/experiments/de1c/materials/stim_files/5.png,./static/experiments/de1c/materials/stim_files/12.png,2,yes,,868,,18,2
596,20,0,./static/experiments/de1c/materials/stim_files/16.png,./static/experiments/de1c/materials/stim_files/1.png,2,yes,,736,,18,2
597,21,0,./static/experiments/de1c/materials/stim_files/13.png,./static/experiments/de1c/materials/stim_files/4.png,2,yes,,970,,18,2
598,22,0,./static/experiments/de1c/materials/stim_files/16.png,./static/experiments/de1c/materials/stim_files/3.png,2,yes,,946,,18,2
599,23,0,./static/experiments/de1c/materials/stim_files/14.png,./static/experiments/de1c/materials/stim_files/10.png,2,no,,2969,,18,2
600,24,0,./static/experiments/de1c/materials/stim_files/6.png,./static/experiments/de1c/materials/stim_files/9.png,2,no,,7758,,18,2
601,25,0,./static/experiments/de1c/materials/stim_files/16.png,./static/experiments/de1c/materials/stim_files/1.png,2,yes,,1472,,18,2
602,26,0,./static/experiments/de1c/materials/stim_files/7.png,./static/experiments/de1c/materials/stim_files/15.png,2,no,,1905,,18,2
603,27,0,./static/experiments/de1c/materials/stim_files/13.png,./static/experiments/de1c/materials/stim_files/12.png,2,no,,942,,18,2
604,28,0,./static/experiments/de1c/materials/stim_files/1.png,./static/experiments/de1c/materials/stim_files/15.png,2,yes,,859,,18,2
605,29,0,./static/experiments/de1c/materials/stim_files/6.png,./static/experiments/de1c/materials/stim_files/10.png,2,no,,2905,,18,2
606,30,0,./static/experiments/de1c/materials/stim_files/10.png,./static/experiments/de1c/materials/stim_files/8.png,2,no,,923,,18,2
607,31,0,./static/experiments/de1c/materials/stim_files/8.png,./static/experiments/de1c/materials/stim_files/14.png,2,no,,1140,,18,2
608,0,0,./static/experiments/de1c/materials/stim_files/3.png,./static/experiments/de1c/materials/stim_files/9.png,2,no,,6024,,19,4
609,1,0,./static/experiments/de1c/materials/stim_files/4.png,./static/experiments/de1c/materials/stim_files/9.png,2,no,,2269,,19,4
610,2,0,./static/experiments/de1c/materials/stim_files/15.png,./static/experiments/de1c/materials/stim_files/4.png,2,yes,,2536,,19,4
611,3,0,./static/experiments/de1c/materials/stim_files/15.png,./static/experiments/de1c/materials/stim_files/1.png,2,no,,4800,,19,4
612,4,0,./static/experiments/de1c/materials/stim_files/11.png,./static/experiments/de1c/materials/stim_files/4.png,2,no,,1579,,19,4
613,5,0,./static/experiments/de1c/materials/stim_files/16.png,./static/experiments/de1c/materials/stim_files/1.png,2,no,,1412,,19,4
614,6,0,./static/experiments/de1c/materials/stim_files/3.png,./static/experiments/de1c/materials/stim_files/11.png,2,yes,,5318,,19,4
615,7,0,./static/experiments/de1c/materials/stim_files/15.png,./static/experiments/de1c/materials/stim_files/13.png,2,no,,1798,,19,4
616,8,0,./static/experiments/de1c/materials/stim_files/14.png,./static/experiments/de1c/materials/stim_files/2.png,2,yes,,1035,,19,4
617,9,0,./static/experiments/de1c/materials/stim_files/7.png,./static/experiments/de1c/materials/stim_files/6.png,2,no,,2558,,19,4
618,10,0,./static/experiments/de1c/materials/stim_files/14.png,./static/experiments/de1c/materials/stim_files/7.png,2,yes,,3524,,19,4
619,11,0,./static/experiments/de1c/materials/stim_files/12.png,./static/experiments/de1c/materials/stim_files/1.png,2,no,,4894,,19,4
620,12,0,./static/experiments/de1c/materials/stim_files/13.png,./static/experiments/de1c/materials/stim_files/1.png,2,no,,1249,,19,4
621,13,0,./static/experiments/de1c/materials/stim_files/14.png,./static/experiments/de1c/materials/stim_files/1.png,2,yes,,1139,,19,4
622,14,0,./static/experiments/de1c/materials/stim_files/15.png,./static/experiments/de1c/materials/stim_files/12.png,2,yes,,2918,,19,4
623,15,0,./static/experiments/de1c/materials/stim_files/9.png,./static/experiments/de1c/materials/stim_files/3.png,2,no,,1939,,19,4
624,16,0,./static/experiments/de1c/materials/stim_files/3.png,./static/experiments/de1c/materials/stim_files/3.png,2,yes,,4038,,19,4
625,17,0,./static/experiments/de1c/materials/stim_files/12.png,./static/experiments/de1c/materials/stim_files/16.png,2,yes,,1389,,19,4
626,18,0,./static/experiments/de1c/materials/stim_files/2.png,./static/experiments/de1c/materials/stim_files/16.png,2,no,,1030,,19,4
627,19,0,./static/experiments/de1c/materials/stim_files/11.png,./static/experiments/de1c/materials/stim_files/7.png,2,yes,,1428,,19,4
628,20,0,./static/experiments/de1c/materials/stim_files/11.png,./static/experiments/de1c/materials/stim_files/2.png,2,no,,997,,19,4
629,21,0,./static/experiments/de1c/materials/stim_files/15.png,./static/experiments/de1c/materials/stim_files/10.png,2,yes,,1177,,19,4
630,22,0,./static/experiments/de1c/materials/stim_files/4.png,./static/experiments/de1c/materials/stim_files/14.png,2,no,,940,,19,4
631,23,0,./static/experiments/de1c/materials/stim_files/3.png,./static/experiments/de1c/materials/stim_files/16.png,2,no,,4585,,19,4
632,24,0,./static/experiments/de1c/materials/stim_files/16.png,./static/experiments/de1c/materials/stim_files/15.png,2,yes,,964,,19,4
633,25,0,./static/experiments/de1c/materials/stim_files/16.png,./static/experiments/de1c/materials/stim_files/1.png,2,no,,1088,,19,4
634,26,0,./static/experiments/de1c/materials/stim_files/7.png,./static/experiments/de1c/materials/stim_files/7.png,2,yes,,1403,,19,4
635,27,0,./static/experiments/de1c/materials/stim_files/11.png,./static/experiments/de1c/materials/stim_files/13.png,2,yes,,955,,19,4
636,28,0,./static/experiments/de1c/materials/stim_files/3.png,./static/experiments/de1c/materials/stim_files/12.png,2,no,,964,,19,4
637,29,0,./static/experiments/de1c/materials/stim_files/4.png,./static/experiments/de1c/materials/stim_files/7.png,2,yes,,4193,,19,4
638,30,0,./static/experiments/de1c/materials/stim_files/10.png,./static/experiments/de1c/materials/stim_files/2.png,2,no,,990,,19,4
639,31,0,./static/experiments/de1c/materials/stim_files/16.png,./static/experiments/de1c/materials/stim_files/6.png,2,yes,,906,,19,4
640,0,0,./static/experiments/de1c/materials/stim_files/6.png,./static/experiments/de1c/materials/stim_files/6.png,2,no,,5769,,20,2
641,1,0,./static/experiments/de1c/materials/stim_files/14.png,./static/experiments/de1c/materials/stim_files/5.png,2,yes,,2745,,20,2
642,2,0,./static/experiments/de1c/materials/stim_files/10.png,./static/experiments/de1c/materials/stim_files/14.png,2,yes,,3283,,20,2
643,3,0,./static/experiments/de1c/materials/stim_files/9.png,./static/experiments/de1c/materials/stim_files/8.png,2,no,,3114,,20,2
644,4,0,./static/experiments/de1c/materials/stim_files/4.png,./static/experiments/de1c/materials/stim_files/8.png,2,yes,,1758,,20,2
645,5,0,./static/experiments/de1c/materials/stim_files/14.png,./static/experiments/de1c/materials/stim_files/1.png,2,yes,,920,,20,2
646,6,0,./static/experiments/de1c/materials/stim_files/10.png,./static/experiments/de1c/materials/stim_files/3.png,2,yes,,1364,,20,2
647,7,0,./static/experiments/de1c/materials/stim_files/3.png,./static/experiments/de1c/materials/stim_files/15.png,2,yes,,818,,20,2
648,8,0,./static/experiments/de1c/materials/stim_files/14.png,./static/experiments/de1c/materials/stim_files/4.png,2,yes,,765,,20,2
649,9,0,./static/experiments/de1c/materials/stim_files/7.png,./static/experiments/de1c/materials/stim_files/10.png,2,no,,1660,,20,2
650,10,0,./static/experiments/de1c/materials/stim_files/13.png,./static/experiments/de1c/materials/stim_files/4.png,2,yes,,812,,20,2
651,11,0,./static/experiments/de1c/materials/stim_files/12.png,./static/experiments/de1c/materials/stim_files/2.png,2,yes,,874,,20,2
652,12,0,./static/experiments/de1c/materials/stim_files/7.png,./static/experiments/de1c/materials/stim_files/15.png,2,yes,,842,,20,2
653,13,0,./static/experiments/de1c/materials/stim_files/1.png,./static/experiments/de1c/materials/stim_files/16.png,2,yes,,549,,20,2
654,14,0,./static/experiments/de1c/materials/stim_files/13.png,./static/experiments/de1c/materials/stim_files/5.png,2,yes,,730,,20,2
655,15,0,./static/experiments/de1c/materials/stim_files/9.png,./static/experiments/de1c/materials/stim_files/12.png,2,yes,,526,,20,2
656,16,0,./static/experiments/de1c/materials/stim_files/2.png,./static/experiments/de1c/materials/stim_files/8.png,2,yes,,1608,,20,2
657,17,0,./static/experiments/de1c/materials/stim_files/1.png,./static/experiments/de1c/materials/stim_files/14.png,2,yes,,746,,20,2
658,18,0,./static/experiments/de1c/materials/stim_files/5.png,./static/experiments/de1c/materials/stim_files/7.png,2,no,,777,,20,2
659,19,0,./static/experiments/de1c/materials/stim_files/16.png,./static/experiments/de1c/materials/stim_files/15.png,2,no,,1835,,20,2
660,20,0,./static/experiments/de1c/materials/stim_files/15.png,./static/experiments/de1c/materials/stim_files/4.png,2,yes,,1370,,20,2
661,21,0,./static/experiments/de1c/materials/stim_files/2.png,./static/experiments/de1c/materials/stim_files/16.png,2,yes,,1070,,20,2
662,22,0,./static/experiments/de1c/materials/stim_files/12.png,./static/experiments/de1c/materials/stim_files/1.png,2,yes,,6689,,20,2
663,23,0,./static/experiments/de1c/materials/stim_files/12.png,./static/experiments/de1c/materials/stim_files/7.png,2,yes,,1325,,20,2
664,24,0,./static/experiments/de1c/materials/stim_files/8.png,./static/experiments/de1c/materials/stim_files/14.png,2,yes,,1472,,20,2
665,25,0,./static/experiments/de1c/materials/stim_files/6.png,./static/experiments/de1c/materials/stim_files/11.png,2,yes,,1278,,20,2
666,26,0,./static/experiments/de1c/materials/stim_files/10.png,./static/experiments/de1c/materials/stim_files/12.png,2,no,,991,,20,2
667,27,0,./static/experiments/de1c/materials/stim_files/14.png,./static/experiments/de1c/materials/stim_files/7.png,2,yes,,1170,,20,2
668,28,0,./static/experiments/de1c/materials/stim_files/2.png,./static/experiments/de1c/materials/stim_files/16.png,2,yes,,702,,20,2
669,29,0,./static/experiments/de1c/materials/stim_files/8.png,./static/experiments/de1c/materials/stim_files/8.png,2,no,,811,,20,2
670,30,0,./static/experiments/de1c/materials/stim_files/1.png,./static/experiments/de1c/materials/stim_files/16.png,2,yes,,698,,20,2
671,31,0,./static/experiments/de1c/materials/stim_files/16.png,./static/experiments/de1c/materials/stim_files/4.png,2,yes,,805,,20,2
672,0,0,./static/experiments/de1c/materials/stim_files/16.png,./static/experiments/de1c/materials/stim_files/4.png,2,yes,,10084,,21,4
673,1,0,./static/experiments/de1c/materials/stim_files/1.png,./static/experiments/de1c/materials/stim_files/14.png,2,no,,984,,21,4
674,2,0,./static/experiments/de1c/materials/stim_files/9.png,./static/experiments/de1c/materials/stim_files/6.png,2,no,,732,,21,4
675,3,0,./static/experiments/de1c/materials/stim_files/3.png,./static/experiments/de1c/materials/stim_files/2.png,2,no,,825,,21,4
676,4,0,./static/experiments/de1c/materials/stim_files/13.png,./static/experiments/de1c/materials/stim_files/5.png,2,yes,,537,,21,4
677,5,0,./static/experiments/de1c/materials/stim_files/1.png,./static/experiments/de1c/materials/stim_files/6.png,2,yes,,4258,,21,4
678,6,0,./static/experiments/de1c/materials/stim_files/8.png,./static/experiments/de1c/materials/stim_files/15.png,2,no,,667,,21,4
679,7,0,./static/experiments/de1c/materials/stim_files/2.png,./static/experiments/de1c/materials/stim_files/16.png,2,yes,,792,,21,4
680,8,0,./static/experiments/de1c/materials/stim_files/3.png,./static/experiments/de1c/materials/stim_files/7.png,2,no,,520,,21,4
681,9,0,./static/experiments/de1c/materials/stim_files/13.png,./static/experiments/de1c/materials/stim_files/4.png,2,yes,,973,,21,4
682,10,0,./static/experiments/de1c/materials/stim_files/6.png,./static/experiments/de1c/materials/stim_files/5.png,2,no,,561,,21,4
683,11,0,./static/experiments/de1c/materials/stim_files/10.png,./static/experiments/de1c/materials/stim_files/12.png,2,yes,,824,,21,4
684,12,0,./static/experiments/de1c/materials/stim_files/14.png,./static/experiments/de1c/materials/stim_files/5.png,2,no,,568,,21,4
685,13,0,./static/experiments/de1c/materials/stim_files/16.png,./static/experiments/de1c/materials/stim_files/1.png,2,yes,,506,,21,4
686,14,0,./static/experiments/de1c/materials/stim_files/8.png,./static/experiments/de1c/materials/stim_files/8.png,2,yes,,501,,21,4
687,15,0,./static/experiments/de1c/materials/stim_files/1.png,./static/experiments/de1c/materials/stim_files/16.png,2,yes,,350,,21,4
688,16,0,./static/experiments/de1c/materials/stim_files/12.png,./static/experiments/de1c/materials/stim_files/2.png,2,yes,,380,,21,4
689,17,0,./static/experiments/de1c/materials/stim_files/3.png,./static/experiments/de1c/materials/stim_files/10.png,2,yes,,584,,21,4
690,18,0,./static/experiments/de1c/materials/stim_files/4.png,./static/experiments/de1c/materials/stim_files/10.png,2,no,,397,,21,4
691,19,0,./static/experiments/de1c/materials/stim_files/5.png,./static/experiments/de1c/materials/stim_files/5.png,2,no,,338,,21,4
692,20,0,./static/experiments/de1c/materials/stim_files/1.png,./static/experiments/de1c/materials/stim_files/9.png,2,yes,,277,,21,4
693,21,0,./static/experiments/de1c/materials/stim_files/2.png,./static/experiments/de1c/materials/stim_files/15.png,2,no,,375,,21,4
694,22,0,./static/experiments/de1c/materials/stim_files/6.png,./static/experiments/de1c/materials/stim_files/10.png,2,no,,710,,21,4
695,23,0,./static/experiments/de1c/materials/stim_files/5.png,./static/experiments/de1c/materials/stim_files/3.png,2,no,,41546,,21,4
696,24,0,./static/experiments/de1c/materials/stim_files/15.png,./static/experiments/de1c/materials/stim_files/4.png,2,yes,,753,,21,4
697,25,0,./static/experiments/de1c/materials/stim_files/16.png,./static/experiments/de1c/materials/stim_files/2.png,2,no,,265,,21,4
698,26,0,./static/experiments/de1c/materials/stim_files/1.png,./static/experiments/de1c/materials/stim_files/12.png,2,no,,514,,21,4
699,27,0,./static/experiments/de1c/materials/stim_files/12.png,./static/experiments/de1c/materials/stim_files/2.png,2,yes,,999,,21,4
700,28,0,./static/experiments/de1c/materials/stim_files/9.png,./static/experiments/de1c/materials/stim_files/15.png,2,no,,364,,21,4
701,29,0,./static/experiments/de1c/materials/stim_files/14.png,./static/experiments/de1c/materials/stim_files/2.png,2,yes,,794,,21,4
702,30,0,./static/experiments/de1c/materials/stim_files/5.png,./static/experiments/de1c/materials/stim_files/10.png,2,no,,132681,,21,4
703,31,0,./static/experiments/de1c/materials/stim_files/8.png,./static/experiments/de1c/materials/stim_files/11.png,2,yes,,271,,21,4
704,0,0,./static/experiments/de1c/materials/stim_files/4.png,./static/experiments/de1c/materials/stim_files/12.png,2,yes,,7667,,22,1
705,1,0,./static/experiments/de1c/materials/stim_files/12.png,./static/experiments/de1c/materials/stim_files/1.png,2,yes,,3741,,22,1
706,2,0,./static/experiments/de1c/materials/stim_files/16.png,./static/experiments/de1c/materials/stim_files/4.png,2,yes,,739,,22,1
707,3,0,./static/experiments/de1c/materials/stim_files/11.png,./static/experiments/de1c/materials/stim_files/9.png,2,yes,,1284,,22,1
708,4,0,./static/experiments/de1c/materials/stim_files/12.png,./static/experiments/de1c/materials/stim_files/3.png,2,yes,,1259,,22,1
709,5,0,./static/experiments/de1c/materials/stim_files/10.png,./static/experiments/de1c/materials/stim_files/4.png,2,yes,,695,,22,1
710,6,0,./static/experiments/de1c/materials/stim_files/9.png,./static/experiments/de1c/materials/stim_files/5.png,2,yes,,510,,22,1
711,7,0,./static/experiments/de1c/materials/stim_files/14.png,./static/experiments/de1c/materials/stim_files/8.png,2,yes,,504,,22,1
712,8,0,./static/experiments/de1c/materials/stim_files/1.png,./static/experiments/de1c/materials/stim_files/1.png,2,no,,559,,22,1
713,9,0,./static/experiments/de1c/materials/stim_files/5.png,./static/experiments/de1c/materials/stim_files/16.png,2,yes,,436,,22,1
714,10,0,./static/experiments/de1c/materials/stim_files/10.png,./static/experiments/de1c/materials/stim_files/15.png,2,yes,,575,,22,1
715,11,0,./static/experiments/de1c/materials/stim_files/4.png,./static/experiments/de1c/materials/stim_files/3.png,2,no,,436,,22,1
716,12,0,./static/experiments/de1c/materials/stim_files/6.png,./static/experiments/de1c/materials/stim_files/1.png,2,yes,,1142,,22,1
717,13,0,./static/experiments/de1c/materials/stim_files/2.png,./static/experiments/de1c/materials/stim_files/14.png,2,yes,,568,,22,1
718,14,0,./static/experiments/de1c/materials/stim_files/7.png,./static/experiments/de1c/materials/stim_files/15.png,2,yes,,413,,22,1
719,15,0,./static/experiments/de1c/materials/stim_files/3.png,./static/experiments/de1c/materials/stim_files/16.png,2,yes,,443,,22,1
720,16,0,./static/experiments/de1c/materials/stim_files/6.png,./static/experiments/de1c/materials/stim_files/13.png,2,yes,,424,,22,1
721,17,0,./static/experiments/de1c/materials/stim_files/14.png,./static/experiments/de1c/materials/stim_files/16.png,2,yes,,965,,22,1
722,18,0,./static/experiments/de1c/materials/stim_files/11.png,./static/experiments/de1c/materials/stim_files/15.png,2,yes,,507,,22,1
723,19,0,./static/experiments/de1c/materials/stim_files/16.png,./static/experiments/de1c/materials/stim_files/2.png,2,yes,,718,,22,1
724,20,0,./static/experiments/de1c/materials/stim_files/11.png,./static/experiments/de1c/materials/stim_files/8.png,2,yes,,649,,22,1
725,21,0,./static/experiments/de1c/materials/stim_files/11.png,./static/experiments/de1c/materials/stim_files/14.png,2,yes,,632,,22,1
726,22,0,./static/experiments/de1c/materials/stim_files/4.png,./static/experiments/de1c/materials/stim_files/14.png,2,yes,,485,,22,1
727,23,0,./static/experiments/de1c/materials/stim_files/1.png,./static/experiments/de1c/materials/stim_files/16.png,2,yes,,468,,22,1
728,24,0,./static/experiments/de1c/materials/stim_files/6.png,./static/experiments/de1c/materials/stim_files/13.png,2,yes,,325,,22,1
729,25,0,./static/experiments/de1c/materials/stim_files/15.png,./static/experiments/de1c/materials/stim_files/2.png,2,yes,,854,,22,1
730,26,0,./static/experiments/de1c/materials/stim_files/7.png,./static/experiments/de1c/materials/stim_files/7.png,2,no,,968,,22,1
731,27,0,./static/experiments/de1c/materials/stim_files/1.png,./static/experiments/de1c/materials/stim_files/15.png,2,yes,,488,,22,1
732,28,0,./static/experiments/de1c/materials/stim_files/10.png,./static/experiments/de1c/materials/stim_files/1.png,2,yes,,674,,22,1
733,29,0,./static/experiments/de1c/materials/stim_files/2.png,./static/experiments/de1c/materials/stim_files/12.png,2,yes,,471,,22,1
734,30,0,./static/experiments/de1c/materials/stim_files/15.png,./static/experiments/de1c/materials/stim_files/16.png,2,no,,710,,22,1
735,31,0,./static/experiments/de1c/materials/stim_files/16.png,./static/experiments/de1c/materials/stim_files/1.png,2,yes,,740,,22,1
736,0,0,./static/experiments/de1c/materials/stim_files/13.png,./static/experiments/de1c/materials/stim_files/5.png,2,no,,5193,,23,3
737,1,0,./static/experiments/de1c/materials/stim_files/15.png,./static/experiments/de1c/materials/stim_files/5.png,2,no,,2794,,23,3
738,2,0,./static/experiments/de1c/materials/stim_files/16.png,./static/experiments/de1c/materials/stim_files/3.png,2,no,,1848,,23,3
739,3,0,./static/experiments/de1c/materials/stim_files/9.png,./static/experiments/de1c/materials/stim_files/8.png,2,yes,,1506,,23,3
740,4,0,./static/experiments/de1c/materials/stim_files/1.png,./static/experiments/de1c/materials/stim_files/11.png,2,no,,19894,,23,3
741,5,0,./static/experiments/de1c/materials/stim_files/13.png,./static/experiments/de1c/materials/stim_files/13.png,2,yes,,1492,,23,3
742,6,0,./static/experiments/de1c/materials/stim_files/14.png,./static/experiments/de1c/materials/stim_files/2.png,2,no,,3579,,23,3
743,7,0,./static/experiments/de1c/materials/stim_files/11.png,./static/experiments/de1c/materials/stim_files/14.png,2,yes,,1198,,23,3
744,8,0,./static/experiments/de1c/materials/stim_files/6.png,./static/experiments/de1c/materials/stim_files/15.png,2,no,,1111,,23,3
745,9,0,./static/experiments/de1c/materials/stim_files/13.png,./static/experiments/de1c/materials/stim_files/8.png,2,yes,,1036,,23,3
746,10,0,./static/experiments/de1c/materials/stim_files/14.png,./static/experiments/de1c/materials/stim_files/12.png,2,yes,,2131,,23,3
747,11,0,./static/experiments/de1c/materials/stim_files/11.png,./static/experiments/de1c/materials/stim_files/4.png,2,no,,1145,,23,3
748,12,0,./static/experiments/de1c/materials/stim_files/7.png,./static/experiments/de1c/materials/stim_files/1.png,2,no,,7210,,23,3
749,13,0,./static/experiments/de1c/materials/stim_files/15.png,./static/experiments/de1c/materials/stim_files/1.png,2,no,,1253,,23,3
750,14,0,./static/experiments/de1c/materials/stim_files/2.png,./static/experiments/de1c/materials/stim_files/4.png,2,yes,,1163,,23,3
751,15,0,./static/experiments/de1c/materials/stim_files/2.png,./static/experiments/de1c/materials/stim_files/16.png,2,no,,972,,23,3
752,16,0,./static/experiments/de1c/materials/stim_files/8.png,./static/experiments/de1c/materials/stim_files/8.png,2,yes,,1076,,23,3
753,17,0,./static/experiments/de1c/materials/stim_files/1.png,./static/experiments/de1c/materials/stim_files/16.png,2,no,,1058,,23,3
754,18,0,./static/experiments/de1c/materials/stim_files/13.png,./static/experiments/de1c/materials/stim_files/1.png,2,yes,,1189,,23,3
755,19,0,./static/experiments/de1c/materials/stim_files/4.png,./static/experiments/de1c/materials/stim_files/9.png,2,no,,2368,,23,3
