,trial,block,s1,s2,connected,response,accuracy,rt,counter,id,condition
0,0,0,./static/experiments/de1c/materials/stim_files/10.png,./static/experiments/de1c/materials/stim_files/2.png,0,yes,1,9129,1,42,4
1,1,0,./static/experiments/de1c/materials/stim_files/6.png,./static/experiments/de1c/materials/stim_files/2.png,1,yes,0,2690,1,42,4
2,2,0,./static/experiments/de1c/materials/stim_files/3.png,./static/experiments/de1c/materials/stim_files/7.png,1,no,1,3918,1,42,4
3,3,0,./static/experiments/de1c/materials/stim_files/5.png,./static/experiments/de1c/materials/stim_files/9.png,1,yes,0,2511,1,42,4
4,4,0,./static/experiments/de1c/materials/stim_files/5.png,./static/experiments/de1c/materials/stim_files/1.png,1,no,1,2053,1,42,4
5,5,0,./static/experiments/de1c/materials/stim_files/3.png,./static/experiments/de1c/materials/stim_files/11.png,0,yes,1,2440,1,42,4
6,6,0,./static/experiments/de1c/materials/stim_files/1.png,./static/experiments/de1c/materials/stim_files/9.png,0,no,0,1943,1,42,4
7,7,0,./static/experiments/de1c/materials/stim_files/3.png,./static/experiments/de1c/materials/stim_files/11.png,0,yes,1,2144,1,42,4
8,8,0,./static/experiments/de1c/materials/stim_files/8.png,./static/experiments/de1c/materials/stim_files/4.png,1,no,1,1767,1,42,4
9,9,0,./static/experiments/de1c/materials/stim_files/10.png,./static/experiments/de1c/materials/stim_files/6.png,1,yes,0,2541,1,42,4
10,10,0,./static/experiments/de1c/materials/stim_files/12.png,./static/experiments/de1c/materials/stim_files/4.png,0,yes,1,2192,1,42,4
11,11,0,./static/experiments/de1c/materials/stim_files/8.png,./static/experiments/de1c/materials/stim_files/12.png,1,yes,0,2049,1,42,4
12,12,0,./static/experiments/de1c/materials/stim_files/11.png,./static/experiments/de1c/materials/stim_files/7.png,1,no,1,1828,1,42,4
13,13,0,./static/experiments/de1c/materials/stim_files/10.png,./static/experiments/de1c/materials/stim_files/2.png,0,no,0,2708,1,42,4
14,14,0,./static/experiments/de1c/materials/stim_files/1.png,./static/experiments/de1c/materials/stim_files/9.png,0,no,0,1593,1,42,4
15,15,0,./static/experiments/de1c/materials/stim_files/12.png,./static/experiments/de1c/materials/stim_files/4.png,0,no,0,3049,1,42,4
16,0,1,./static/experiments/de1c/materials/stim_files/12.png,./static/experiments/de1c/materials/stim_files/4.png,0,yes,1,1149,1,42,4
17,1,1,./static/experiments/de1c/materials/stim_files/7.png,./static/experiments/de1c/materials/stim_files/11.png,1,no,1,2574,1,42,4
18,2,1,./static/experiments/de1c/materials/stim_files/7.png,./static/experiments/de1c/materials/stim_files/3.png,1,yes,0,1856,1,42,4
19,3,1,./static/experiments/de1c/materials/stim_files/1.png,./static/experiments/de1c/materials/stim_files/9.png,0,yes,1,4299,1,42,4
20,4,1,./static/experiments/de1c/materials/stim_files/6.png,./static/experiments/de1c/materials/stim_files/10.png,1,no,1,4246,1,42,4
21,5,1,./static/experiments/de1c/materials/stim_files/5.png,./static/experiments/de1c/materials/stim_files/9.png,1,no,1,3416,1,42,4
22,6,1,./static/experiments/de1c/materials/stim_files/11.png,./static/experiments/de1c/materials/stim_files/3.png,0,yes,1,4181,1,42,4
23,7,1,./static/experiments/de1c/materials/stim_files/8.png,./static/experiments/de1c/materials/stim_files/12.png,1,no,1,2669,1,42,4
24,8,1,./static/experiments/de1c/materials/stim_files/1.png,./static/experiments/de1c/materials/stim_files/9.png,0,no,0,3009,1,42,4
25,9,1,./static/experiments/de1c/materials/stim_files/4.png,./static/experiments/de1c/materials/stim_files/12.png,0,no,0,1114,1,42,4
26,10,1,./static/experiments/de1c/materials/stim_files/3.png,./static/experiments/de1c/materials/stim_files/11.png,0,yes,1,715,1,42,4
27,11,1,./static/experiments/de1c/materials/stim_files/8.png,./static/experiments/de1c/materials/stim_files/4.png,1,no,1,1545,1,42,4
28,12,1,./static/experiments/de1c/materials/stim_files/2.png,./static/experiments/de1c/materials/stim_files/10.png,0,yes,1,1333,1,42,4
29,13,1,./static/experiments/de1c/materials/stim_files/2.png,./static/experiments/de1c/materials/stim_files/10.png,0,yes,1,826,1,42,4
30,14,1,./static/experiments/de1c/materials/stim_files/1.png,./static/experiments/de1c/materials/stim_files/5.png,1,no,1,740,1,42,4
31,15,1,./static/experiments/de1c/materials/stim_files/6.png,./static/experiments/de1c/materials/stim_files/2.png,1,no,1,930,1,42,4
32,0,2,./static/experiments/de1c/materials/stim_files/11.png,./static/experiments/de1c/materials/stim_files/3.png,0,yes,1,1004,1,42,4
33,1,2,./static/experiments/de1c/materials/stim_files/8.png,./static/experiments/de1c/materials/stim_files/4.png,1,no,1,1073,1,42,4
34,2,2,./static/experiments/de1c/materials/stim_files/1.png,./static/experiments/de1c/materials/stim_files/5.png,1,no,1,916,1,42,4
35,3,2,./static/experiments/de1c/materials/stim_files/10.png,./static/experiments/de1c/materials/stim_files/2.png,0,yes,1,1538,1,42,4
36,4,2,./static/experiments/de1c/materials/stim_files/7.png,./static/experiments/de1c/materials/stim_files/3.png,1,no,1,1834,1,42,4
37,5,2,./static/experiments/de1c/materials/stim_files/12.png,./static/experiments/de1c/materials/stim_files/4.png,0,yes,1,2506,1,42,4
38,6,2,./static/experiments/de1c/materials/stim_files/11.png,./static/experiments/de1c/materials/stim_files/3.png,0,yes,1,851,1,42,4
39,7,2,./static/experiments/de1c/materials/stim_files/9.png,./static/experiments/de1c/materials/stim_files/1.png,0,no,0,805,1,42,4
40,8,2,./static/experiments/de1c/materials/stim_files/6.png,./static/experiments/de1c/materials/stim_files/10.png,1,no,1,1718,1,42,4
41,9,2,./static/experiments/de1c/materials/stim_files/12.png,./static/experiments/de1c/materials/stim_files/4.png,0,yes,1,1266,1,42,4
42,10,2,./static/experiments/de1c/materials/stim_files/9.png,./static/experiments/de1c/materials/stim_files/5.png,1,no,1,2102,1,42,4
43,11,2,./static/experiments/de1c/materials/stim_files/9.png,./static/experiments/de1c/materials/stim_files/1.png,0,yes,1,1004,1,42,4
44,12,2,./static/experiments/de1c/materials/stim_files/11.png,./static/experiments/de1c/materials/stim_files/7.png,1,yes,0,623,1,42,4
45,13,2,./static/experiments/de1c/materials/stim_files/10.png,./static/experiments/de1c/materials/stim_files/2.png,0,yes,1,738,1,42,4
46,14,2,./static/experiments/de1c/materials/stim_files/2.png,./static/experiments/de1c/materials/stim_files/6.png,1,no,1,1012,1,42,4
47,15,2,./static/experiments/de1c/materials/stim_files/8.png,./static/experiments/de1c/materials/stim_files/12.png,1,no,1,2731,1,42,4
48,0,3,./static/experiments/de1c/materials/stim_files/2.png,./static/experiments/de1c/materials/stim_files/10.png,0,yes,1,1272,1,42,4
49,1,3,./static/experiments/de1c/materials/stim_files/3.png,./static/experiments/de1c/materials/stim_files/7.png,1,no,1,2767,1,42,4
50,2,3,./static/experiments/de1c/materials/stim_files/12.png,./static/experiments/de1c/materials/stim_files/8.png,1,no,1,1232,1,42,4
51,3,3,./static/experiments/de1c/materials/stim_files/12.png,./static/experiments/de1c/materials/stim_files/4.png,0,yes,1,3669,1,42,4
52,4,3,./static/experiments/de1c/materials/stim_files/2.png,./static/experiments/de1c/materials/stim_files/10.png,0,no,0,1031,1,42,4
53,5,3,./static/experiments/de1c/materials/stim_files/2.png,./static/experiments/de1c/materials/stim_files/6.png,1,no,1,1504,1,42,4
54,6,3,./static/experiments/de1c/materials/stim_files/5.png,./static/experiments/de1c/materials/stim_files/1.png,1,no,1,779,1,42,4
55,7,3,./static/experiments/de1c/materials/stim_files/11.png,./static/experiments/de1c/materials/stim_files/3.png,0,yes,1,2560,1,42,4
56,8,3,./static/experiments/de1c/materials/stim_files/1.png,./static/experiments/de1c/materials/stim_files/9.png,0,no,0,848,1,42,4
57,9,3,./static/experiments/de1c/materials/stim_files/7.png,./static/experiments/de1c/materials/stim_files/11.png,1,no,1,2540,1,42,4
58,10,3,./static/experiments/de1c/materials/stim_files/3.png,./static/experiments/de1c/materials/stim_files/11.png,0,yes,1,1197,1,42,4
59,11,3,./static/experiments/de1c/materials/stim_files/4.png,./static/experiments/de1c/materials/stim_files/12.png,0,yes,1,868,1,42,4
60,12,3,./static/experiments/de1c/materials/stim_files/1.png,./static/experiments/de1c/materials/stim_files/9.png,0,yes,1,806,1,42,4
61,13,3,./static/experiments/de1c/materials/stim_files/4.png,./static/experiments/de1c/materials/stim_files/8.png,1,no,1,828,1,42,4
62,14,3,./static/experiments/de1c/materials/stim_files/9.png,./static/experiments/de1c/materials/stim_files/5.png,1,no,1,813,1,42,4
63,15,3,./static/experiments/de1c/materials/stim_files/6.png,./static/experiments/de1c/materials/stim_files/10.png,1,no,1,668,1,42,4
64,0,0,./static/experiments/de1c/materials/stim_files/4.png,./static/experiments/de1c/materials/stim_files/11.png,1,no,1,13651,1,131,3
65,1,0,./static/experiments/de1c/materials/stim_files/10.png,./static/experiments/de1c/materials/stim_files/3.png,1,no,1,2027,1,131,3
66,2,0,./static/experiments/de1c/materials/stim_files/10.png,./static/experiments/de1c/materials/stim_files/2.png,0,no,0,1191,1,131,3
67,3,0,./static/experiments/de1c/materials/stim_files/2.png,./static/experiments/de1c/materials/stim_files/10.png,0,no,0,1991,1,131,3
68,4,0,./static/experiments/de1c/materials/stim_files/1.png,./static/experiments/de1c/materials/stim_files/9.png,0,yes,1,1597,1,131,3
69,5,0,./static/experiments/de1c/materials/stim_files/8.png,./static/experiments/de1c/materials/stim_files/1.png,1,no,1,1062,1,131,3
70,6,0,./static/experiments/de1c/materials/stim_files/12.png,./static/experiments/de1c/materials/stim_files/4.png,0,no,0,1509,1,131,3
71,7,0,./static/experiments/de1c/materials/stim_files/3.png,./static/experiments/de1c/materials/stim_files/10.png,1,yes,0,2542,1,131,3
72,8,0,./static/experiments/de1c/materials/stim_files/4.png,./static/experiments/de1c/materials/stim_files/12.png,0,no,0,903,1,131,3
73,9,0,./static/experiments/de1c/materials/stim_files/2.png,./static/experiments/de1c/materials/stim_files/9.png,1,no,1,3195,1,131,3
74,10,0,./static/experiments/de1c/materials/stim_files/11.png,./static/experiments/de1c/materials/stim_files/3.png,0,yes,1,1111,1,131,3
75,11,0,./static/experiments/de1c/materials/stim_files/1.png,./static/experiments/de1c/materials/stim_files/8.png,1,yes,0,1426,1,131,3
76,12,0,./static/experiments/de1c/materials/stim_files/11.png,./static/experiments/de1c/materials/stim_files/4.png,1,yes,0,1091,1,131,3
77,13,0,./static/experiments/de1c/materials/stim_files/11.png,./static/experiments/de1c/materials/stim_files/3.png,0,no,0,978,1,131,3
78,14,0,./static/experiments/de1c/materials/stim_files/9.png,./static/experiments/de1c/materials/stim_files/1.png,0,no,0,501,1,131,3
79,15,0,./static/experiments/de1c/materials/stim_files/2.png,./static/experiments/de1c/materials/stim_files/9.png,1,no,1,786,1,131,3
80,0,1,./static/experiments/de1c/materials/stim_files/11.png,./static/experiments/de1c/materials/stim_files/3.png,0,yes,1,506,1,131,3
81,1,1,./static/experiments/de1c/materials/stim_files/3.png,./static/experiments/de1c/materials/stim_files/11.png,0,no,0,524,1,131,3
82,2,1,./static/experiments/de1c/materials/stim_files/8.png,./static/experiments/de1c/materials/stim_files/1.png,1,yes,0,863,1,131,3
83,3,1,./static/experiments/de1c/materials/stim_files/3.png,./static/experiments/de1c/materials/stim_files/10.png,1,no,1,386,1,131,3
84,4,1,./static/experiments/de1c/materials/stim_files/2.png,./static/experiments/de1c/materials/stim_files/9.png,1,yes,0,1243,1,131,3
85,5,1,./static/experiments/de1c/materials/stim_files/11.png,./static/experiments/de1c/materials/stim_files/4.png,1,yes,0,1223,1,131,3
86,6,1,./static/experiments/de1c/materials/stim_files/2.png,./static/experiments/de1c/materials/stim_files/9.png,1,no,1,625,1,131,3
87,7,1,./static/experiments/de1c/materials/stim_files/1.png,./static/experiments/de1c/materials/stim_files/9.png,0,no,0,1186,1,131,3
88,8,1,./static/experiments/de1c/materials/stim_files/4.png,./static/experiments/de1c/materials/stim_files/12.png,0,yes,1,2388,1,131,3
89,9,1,./static/experiments/de1c/materials/stim_files/1.png,./static/experiments/de1c/materials/stim_files/8.png,1,no,1,959,1,131,3
90,10,1,./static/experiments/de1c/materials/stim_files/10.png,./static/experiments/de1c/materials/stim_files/2.png,0,yes,1,1655,1,131,3
91,11,1,./static/experiments/de1c/materials/stim_files/4.png,./static/experiments/de1c/materials/stim_files/12.png,0,yes,1,995,1,131,3
92,12,1,./static/experiments/de1c/materials/stim_files/11.png,./static/experiments/de1c/materials/stim_files/4.png,1,yes,0,1435,1,131,3
93,13,1,./static/experiments/de1c/materials/stim_files/2.png,./static/experiments/de1c/materials/stim_files/10.png,0,no,0,2534,1,131,3
94,14,1,./static/experiments/de1c/materials/stim_files/1.png,./static/experiments/de1c/materials/stim_files/9.png,0,no,0,577,1,131,3
95,15,1,./static/experiments/de1c/materials/stim_files/10.png,./static/experiments/de1c/materials/stim_files/3.png,1,yes,0,890,1,131,3
96,0,2,./static/experiments/de1c/materials/stim_files/11.png,./static/experiments/de1c/materials/stim_files/3.png,0,yes,1,651,1,131,3
97,1,2,./static/experiments/de1c/materials/stim_files/11.png,./static/experiments/de1c/materials/stim_files/3.png,0,yes,1,715,1,131,3
98,2,2,./static/experiments/de1c/materials/stim_files/8.png,./static/experiments/de1c/materials/stim_files/1.png,1,no,1,970,1,131,3
99,3,2,./static/experiments/de1c/materials/stim_files/3.png,./static/experiments/de1c/materials/stim_files/10.png,1,no,1,1092,1,131,3
100,4,2,./static/experiments/de1c/materials/stim_files/9.png,./static/experiments/de1c/materials/stim_files/2.png,1,yes,0,1162,1,131,3
101,5,2,./static/experiments/de1c/materials/stim_files/4.png,./static/experiments/de1c/materials/stim_files/12.png,0,yes,1,902,1,131,3
102,6,2,./static/experiments/de1c/materials/stim_files/2.png,./static/experiments/de1c/materials/stim_files/10.png,0,no,0,963,1,131,3
103,7,2,./static/experiments/de1c/materials/stim_files/11.png,./static/experiments/de1c/materials/stim_files/4.png,1,yes,0,645,1,131,3
104,8,2,./static/experiments/de1c/materials/stim_files/4.png,./static/experiments/de1c/materials/stim_files/12.png,0,no,0,800,1,131,3
105,9,2,./static/experiments/de1c/materials/stim_files/3.png,./static/experiments/de1c/materials/stim_files/10.png,1,no,1,534,1,131,3
106,10,2,./static/experiments/de1c/materials/stim_files/9.png,./static/experiments/de1c/materials/stim_files/2.png,1,yes,0,675,1,131,3
107,11,2,./static/experiments/de1c/materials/stim_files/9.png,./static/experiments/de1c/materials/stim_files/1.png,0,no,0,567,1,131,3
108,12,2,./static/experiments/de1c/materials/stim_files/1.png,./static/experiments/de1c/materials/stim_files/8.png,1,yes,0,412,1,131,3
109,13,2,./static/experiments/de1c/materials/stim_files/4.png,./static/experiments/de1c/materials/stim_files/11.png,1,no,1,184,1,131,3
110,14,2,./static/experiments/de1c/materials/stim_files/9.png,./static/experiments/de1c/materials/stim_files/1.png,0,yes,1,148,1,131,3
111,15,2,./static/experiments/de1c/materials/stim_files/2.png,./static/experiments/de1c/materials/stim_files/10.png,0,no,0,144,1,131,3
112,0,3,./static/experiments/de1c/materials/stim_files/11.png,./static/experiments/de1c/materials/stim_files/3.png,0,yes,1,185,1,131,3
113,1,3,./static/experiments/de1c/materials/stim_files/10.png,./static/experiments/de1c/materials/stim_files/2.png,0,no,0,159,1,131,3
114,2,3,./static/experiments/de1c/materials/stim_files/12.png,./static/experiments/de1c/materials/stim_files/4.png,0,yes,1,159,1,131,3
115,3,3,./static/experiments/de1c/materials/stim_files/9.png,./static/experiments/de1c/materials/stim_files/2.png,1,no,1,96,1,131,3
116,4,3,./static/experiments/de1c/materials/stim_files/1.png,./static/experiments/de1c/materials/stim_files/8.png,1,yes,0,32,1,131,3
117,5,3,./static/experiments/de1c/materials/stim_files/11.png,./static/experiments/de1c/materials/stim_files/4.png,1,no,1,24,1,131,3
118,6,3,./static/experiments/de1c/materials/stim_files/3.png,./static/experiments/de1c/materials/stim_files/11.png,0,yes,1,194,1,131,3
119,7,3,./static/experiments/de1c/materials/stim_files/11.png,./static/experiments/de1c/materials/stim_files/4.png,1,no,1,108,1,131,3
120,8,3,./static/experiments/de1c/materials/stim_files/1.png,./static/experiments/de1c/materials/stim_files/9.png,0,yes,1,61,1,131,3
121,9,3,./static/experiments/de1c/materials/stim_files/3.png,./static/experiments/de1c/materials/stim_files/10.png,1,no,1,93,1,131,3
122,10,3,./static/experiments/de1c/materials/stim_files/8.png,./static/experiments/de1c/materials/stim_files/1.png,1,yes,0,24,1,131,3
123,11,3,./static/experiments/de1c/materials/stim_files/9.png,./static/experiments/de1c/materials/stim_files/2.png,1,no,1,79,1,131,3
124,12,3,./static/experiments/de1c/materials/stim_files/10.png,./static/experiments/de1c/materials/stim_files/3.png,1,yes,0,26,1,131,3
125,13,3,./static/experiments/de1c/materials/stim_files/4.png,./static/experiments/de1c/materials/stim_files/12.png,0,no,0,84,1,131,3
126,14,3,./static/experiments/de1c/materials/stim_files/2.png,./static/experiments/de1c/materials/stim_files/10.png,0,yes,1,39,1,131,3
127,15,3,./static/experiments/de1c/materials/stim_files/1.png,./static/experiments/de1c/materials/stim_files/9.png,0,no,0,38,1,131,3
128,0,0,./static/experiments/de1c/materials/stim_files/5.png,./static/experiments/de1c/materials/stim_files/6.png,1,yes,0,16769,1,117,2
129,1,0,./static/experiments/de1c/materials/stim_files/1.png,./static/experiments/de1c/materials/stim_files/9.png,0,no,0,4605,1,117,2
130,2,0,./static/experiments/de1c/materials/stim_files/4.png,./static/experiments/de1c/materials/stim_files/12.png,0,no,0,3623,1,117,2
131,3,0,./static/experiments/de1c/materials/stim_files/2.png,./static/experiments/de1c/materials/stim_files/10.png,0,yes,1,6032,1,117,2
132,4,0,./static/experiments/de1c/materials/stim_files/3.png,./static/experiments/de1c/materials/stim_files/11.png,0,yes,1,2234,1,117,2
133,5,0,./static/experiments/de1c/materials/stim_files/11.png,./static/experiments/de1c/materials/stim_files/3.png,0,yes,1,4924,1,117,2
134,6,0,./static/experiments/de1c/materials/stim_files/8.png,./static/experiments/de1c/materials/stim_files/7.png,1,no,1,3353,1,117,2
135,7,0,./static/experiments/de1c/materials/stim_files/1.png,./static/experiments/de1c/materials/stim_files/2.png,1,no,1,5448,1,117,2
136,8,0,./static/experiments/de1c/materials/stim_files/2.png,./static/experiments/de1c/materials/stim_files/10.png,0,yes,1,2941,1,117,2
137,9,0,./static/experiments/de1c/materials/stim_files/3.png,./static/experiments/de1c/materials/stim_files/4.png,1,no,1,1624,1,117,2
138,10,0,./static/experiments/de1c/materials/stim_files/5.png,./static/experiments/de1c/materials/stim_files/4.png,1,no,1,1857,1,117,2
139,11,0,./static/experiments/de1c/materials/stim_files/12.png,./static/experiments/de1c/materials/stim_files/4.png,0,yes,1,1484,1,117,2
140,12,0,./static/experiments/de1c/materials/stim_files/9.png,./static/experiments/de1c/materials/stim_files/1.png,0,yes,1,753,1,117,2
141,13,0,./static/experiments/de1c/materials/stim_files/6.png,./static/experiments/de1c/materials/stim_files/7.png,1,no,1,985,1,117,2
142,14,0,./static/experiments/de1c/materials/stim_files/3.png,./static/experiments/de1c/materials/stim_files/2.png,1,no,1,1106,1,117,2
143,0,1,./static/experiments/de1c/materials/stim_files/12.png,./static/experiments/de1c/materials/stim_files/4.png,0,yes,1,934,1,117,2
144,1,1,./static/experiments/de1c/materials/stim_files/3.png,./static/experiments/de1c/materials/stim_files/4.png,1,no,1,673,1,117,2
145,2,1,./static/experiments/de1c/materials/stim_files/9.png,./static/experiments/de1c/materials/stim_files/1.png,0,yes,1,1842,1,117,2
146,3,1,./static/experiments/de1c/materials/stim_files/8.png,./static/experiments/de1c/materials/stim_files/7.png,1,no,1,692,1,117,2
147,4,1,./static/experiments/de1c/materials/stim_files/3.png,./static/experiments/de1c/materials/stim_files/11.png,0,yes,1,721,1,117,2
148,5,1,./static/experiments/de1c/materials/stim_files/11.png,./static/experiments/de1c/materials/stim_files/3.png,0,yes,1,3219,1,117,2
149,6,1,./static/experiments/de1c/materials/stim_files/6.png,./static/experiments/de1c/materials/stim_files/5.png,1,no,1,867,1,117,2
150,0,0,./static/experiments/de1c/materials/stim_files/2.png,./static/experiments/de1c/materials/stim_files/10.png,0,no,0,3523,1,124,4
151,1,0,./static/experiments/de1c/materials/stim_files/12.png,./static/experiments/de1c/materials/stim_files/8.png,1,yes,0,2658,1,124,4
152,2,0,./static/experiments/de1c/materials/stim_files/2.png,./static/experiments/de1c/materials/stim_files/10.png,0,yes,1,1723,1,124,4
153,3,0,./static/experiments/de1c/materials/stim_files/2.png,./static/experiments/de1c/materials/stim_files/6.png,1,yes,0,3091,1,124,4
154,4,0,./static/experiments/de1c/materials/stim_files/6.png,./static/experiments/de1c/materials/stim_files/10.png,1,yes,0,1252,1,124,4
155,5,0,./static/experiments/de1c/materials/stim_files/7.png,./static/experiments/de1c/materials/stim_files/3.png,1,yes,0,1228,1,124,4
156,6,0,./static/experiments/de1c/materials/stim_files/1.png,./static/experiments/de1c/materials/stim_files/9.png,0,no,0,1421,1,124,4
157,7,0,./static/experiments/de1c/materials/stim_files/4.png,./static/experiments/de1c/materials/stim_files/12.png,0,no,0,1385,1,124,4
158,8,0,./static/experiments/de1c/materials/stim_files/4.png,./static/experiments/de1c/materials/stim_files/12.png,0,no,0,1008,1,124,4
159,9,0,./static/experiments/de1c/materials/stim_files/11.png,./static/experiments/de1c/materials/stim_files/7.png,1,yes,0,1222,1,124,4
160,10,0,./static/experiments/de1c/materials/stim_files/11.png,./static/experiments/de1c/materials/stim_files/3.png,0,yes,1,828,1,124,4
161,11,0,./static/experiments/de1c/materials/stim_files/11.png,./static/experiments/de1c/materials/stim_files/3.png,0,no,0,2315,1,124,4
162,12,0,./static/experiments/de1c/materials/stim_files/9.png,./static/experiments/de1c/materials/stim_files/5.png,1,yes,0,968,1,124,4
163,13,0,./static/experiments/de1c/materials/stim_files/1.png,./static/experiments/de1c/materials/stim_files/5.png,1,yes,0,759,1,124,4
164,14,0,./static/experiments/de1c/materials/stim_files/4.png,./static/experiments/de1c/materials/stim_files/8.png,1,no,1,634,1,124,4
165,15,0,./static/experiments/de1c/materials/stim_files/1.png,./static/experiments/de1c/materials/stim_files/9.png,0,yes,1,625,1,124,4
166,0,1,./static/experiments/de1c/materials/stim_files/9.png,./static/experiments/de1c/materials/stim_files/1.png,0,yes,1,430,1,124,4
167,1,1,./static/experiments/de1c/materials/stim_files/12.png,./static/experiments/de1c/materials/stim_files/4.png,0,no,0,863,1,124,4
168,2,1,./static/experiments/de1c/materials/stim_files/2.png,./static/experiments/de1c/materials/stim_files/6.png,1,yes,0,561,1,124,4
169,3,1,./static/experiments/de1c/materials/stim_files/4.png,./static/experiments/de1c/materials/stim_files/8.png,1,no,1,388,1,124,4
170,4,1,./static/experiments/de1c/materials/stim_files/3.png,./static/experiments/de1c/materials/stim_files/7.png,1,yes,0,727,1,124,4
171,5,1,./static/experiments/de1c/materials/stim_files/10.png,./static/experiments/de1c/materials/stim_files/2.png,0,no,0,2024,1,124,4
172,6,1,./static/experiments/de1c/materials/stim_files/9.png,./static/experiments/de1c/materials/stim_files/1.png,0,yes,1,1031,1,124,4
173,7,1,./static/experiments/de1c/materials/stim_files/10.png,./static/experiments/de1c/materials/stim_files/2.png,0,yes,1,936,1,124,4
174,8,1,./static/experiments/de1c/materials/stim_files/5.png,./static/experiments/de1c/materials/stim_files/9.png,1,yes,0,586,1,124,4
175,9,1,./static/experiments/de1c/materials/stim_files/7.png,./static/experiments/de1c/materials/stim_files/11.png,1,no,1,1245,1,124,4
176,10,1,./static/experiments/de1c/materials/stim_files/3.png,./static/experiments/de1c/materials/stim_files/11.png,0,yes,1,933,1,124,4
177,11,1,./static/experiments/de1c/materials/stim_files/11.png,./static/experiments/de1c/materials/stim_files/3.png,0,yes,1,1399,1,124,4
178,12,1,./static/experiments/de1c/materials/stim_files/5.png,./static/experiments/de1c/materials/stim_files/1.png,1,no,1,1262,1,124,4
179,13,1,./static/experiments/de1c/materials/stim_files/6.png,./static/experiments/de1c/materials/stim_files/10.png,1,no,1,1048,1,124,4
180,14,1,./static/experiments/de1c/materials/stim_files/12.png,./static/experiments/de1c/materials/stim_files/4.png,0,yes,1,1122,1,124,4
181,15,1,./static/experiments/de1c/materials/stim_files/12.png,./static/experiments/de1c/materials/stim_files/8.png,1,no,1,1219,1,124,4
182,0,2,./static/experiments/de1c/materials/stim_files/5.png,./static/experiments/de1c/materials/stim_files/1.png,1,no,1,1251,1,124,4
183,1,2,./static/experiments/de1c/materials/stim_files/6.png,./static/experiments/de1c/materials/stim_files/2.png,1,no,1,2554,1,124,4
184,2,2,./static/experiments/de1c/materials/stim_files/11.png,./static/experiments/de1c/materials/stim_files/3.png,0,yes,1,1231,1,124,4
185,3,2,./static/experiments/de1c/materials/stim_files/11.png,./static/experiments/de1c/materials/stim_files/3.png,0,yes,1,800,1,124,4
186,4,2,./static/experiments/de1c/materials/stim_files/8.png,./static/experiments/de1c/materials/stim_files/4.png,1,no,1,1082,1,124,4
187,5,2,./static/experiments/de1c/materials/stim_files/11.png,./static/experiments/de1c/materials/stim_files/7.png,1,no,1,901,1,124,4
188,6,2,./static/experiments/de1c/materials/stim_files/10.png,./static/experiments/de1c/materials/stim_files/6.png,1,no,1,776,1,124,4
189,7,2,./static/experiments/de1c/materials/stim_files/8.png,./static/experiments/de1c/materials/stim_files/12.png,1,no,1,1179,1,124,4
190,8,2,./static/experiments/de1c/materials/stim_files/9.png,./static/experiments/de1c/materials/stim_files/1.png,0,yes,1,1295,1,124,4
191,9,2,./static/experiments/de1c/materials/stim_files/9.png,./static/experiments/de1c/materials/stim_files/5.png,1,no,1,1022,1,124,4
192,0,0,./static/experiments/de1c/materials/stim_files/4.png,./static/experiments/de1c/materials/stim_files/4.png,1,yes,0,10138,1,108,1
193,1,0,./static/experiments/de1c/materials/stim_files/4.png,./static/experiments/de1c/materials/stim_files/12.png,0,yes,1,2650,1,108,1
194,2,0,./static/experiments/de1c/materials/stim_files/6.png,./static/experiments/de1c/materials/stim_files/6.png,1,no,1,2026,1,108,1
195,3,0,./static/experiments/de1c/materials/stim_files/11.png,./static/experiments/de1c/materials/stim_files/3.png,0,yes,1,1643,1,108,1
196,4,0,./static/experiments/de1c/materials/stim_files/1.png,./static/experiments/de1c/materials/stim_files/1.png,1,no,1,1849,1,108,1
197,5,0,./static/experiments/de1c/materials/stim_files/2.png,./static/experiments/de1c/materials/stim_files/10.png,0,yes,1,1673,1,108,1
198,6,0,./static/experiments/de1c/materials/stim_files/7.png,./static/experiments/de1c/materials/stim_files/7.png,1,no,1,1400,1,108,1
199,7,0,./static/experiments/de1c/materials/stim_files/8.png,./static/experiments/de1c/materials/stim_files/8.png,1,no,1,2251,1,108,1
200,8,0,./static/experiments/de1c/materials/stim_files/5.png,./static/experiments/de1c/materials/stim_files/5.png,1,no,1,1243,1,108,1
201,9,0,./static/experiments/de1c/materials/stim_files/4.png,./static/experiments/de1c/materials/stim_files/12.png,0,yes,1,1067,1,108,1
202,10,0,./static/experiments/de1c/materials/stim_files/9.png,./static/experiments/de1c/materials/stim_files/1.png,0,yes,1,972,1,108,1
203,11,0,./static/experiments/de1c/materials/stim_files/2.png,./static/experiments/de1c/materials/stim_files/10.png,0,yes,1,1226,1,108,1
204,12,0,./static/experiments/de1c/materials/stim_files/3.png,./static/experiments/de1c/materials/stim_files/11.png,0,yes,1,1048,1,108,1
205,13,0,./static/experiments/de1c/materials/stim_files/2.png,./static/experiments/de1c/materials/stim_files/2.png,1,no,1,809,1,108,1
206,14,0,./static/experiments/de1c/materials/stim_files/3.png,./static/experiments/de1c/materials/stim_files/3.png,1,no,1,905,1,108,1
207,15,0,./static/experiments/de1c/materials/stim_files/1.png,./static/experiments/de1c/materials/stim_files/9.png,0,yes,1,1737,1,108,1
208,0,1,./static/experiments/de1c/materials/stim_files/11.png,./static/experiments/de1c/materials/stim_files/3.png,0,yes,1,811,1,108,1
209,1,1,./static/experiments/de1c/materials/stim_files/10.png,./static/experiments/de1c/materials/stim_files/2.png,0,yes,1,638,1,108,1
210,2,1,./static/experiments/de1c/materials/stim_files/1.png,./static/experiments/de1c/materials/stim_files/9.png,0,yes,1,732,1,108,1
211,3,1,./static/experiments/de1c/materials/stim_files/1.png,./static/experiments/de1c/materials/stim_files/9.png,0,yes,1,807,1,108,1
212,4,1,./static/experiments/de1c/materials/stim_files/5.png,./static/experiments/de1c/materials/stim_files/5.png,1,no,1,1117,1,108,1
213,0,0,./static/experiments/de1c/materials/stim_files/7.png,./static/experiments/de1c/materials/stim_files/7.png,1,yes,0,6457,1,28,1
214,1,0,./static/experiments/de1c/materials/stim_files/3.png,./static/experiments/de1c/materials/stim_files/11.png,0,yes,1,1703,1,28,1
215,2,0,./static/experiments/de1c/materials/stim_files/1.png,./static/experiments/de1c/materials/stim_files/9.png,0,yes,1,1560,1,28,1
216,3,0,./static/experiments/de1c/materials/stim_files/2.png,./static/experiments/de1c/materials/stim_files/10.png,0,yes,1,1051,1,28,1
217,4,0,./static/experiments/de1c/materials/stim_files/8.png,./static/experiments/de1c/materials/stim_files/8.png,1,no,1,1646,1,28,1
218,5,0,./static/experiments/de1c/materials/stim_files/3.png,./static/experiments/de1c/materials/stim_files/3.png,1,no,1,1092,1,28,1
219,6,0,./static/experiments/de1c/materials/stim_files/4.png,./static/experiments/de1c/materials/stim_files/12.png,0,yes,1,953,1,28,1
220,7,0,./static/experiments/de1c/materials/stim_files/4.png,./static/experiments/de1c/materials/stim_files/4.png,1,no,1,1173,1,28,1
221,8,0,./static/experiments/de1c/materials/stim_files/6.png,./static/experiments/de1c/materials/stim_files/6.png,1,no,1,842,1,28,1
222,9,0,./static/experiments/de1c/materials/stim_files/12.png,./static/experiments/de1c/materials/stim_files/4.png,0,yes,1,712,1,28,1
223,10,0,./static/experiments/de1c/materials/stim_files/3.png,./static/experiments/de1c/materials/stim_files/11.png,0,yes,1,593,1,28,1
224,11,0,./static/experiments/de1c/materials/stim_files/2.png,./static/experiments/de1c/materials/stim_files/2.png,1,no,1,780,1,28,1
225,12,0,./static/experiments/de1c/materials/stim_files/9.png,./static/experiments/de1c/materials/stim_files/1.png,0,yes,1,795,1,28,1
226,13,0,./static/experiments/de1c/materials/stim_files/2.png,./static/experiments/de1c/materials/stim_files/10.png,0,yes,1,1494,1,28,1
227,14,0,./static/experiments/de1c/materials/stim_files/1.png,./static/experiments/de1c/materials/stim_files/1.png,1,no,1,712,1,28,1
228,15,0,./static/experiments/de1c/materials/stim_files/5.png,./static/experiments/de1c/materials/stim_files/5.png,1,no,1,827,1,28,1
229,0,1,./static/experiments/de1c/materials/stim_files/2.png,./static/experiments/de1c/materials/stim_files/2.png,1,no,1,825,1,28,1
230,1,1,./static/experiments/de1c/materials/stim_files/12.png,./static/experiments/de1c/materials/stim_files/4.png,0,yes,1,566,1,28,1
231,2,1,./static/experiments/de1c/materials/stim_files/6.png,./static/experiments/de1c/materials/stim_files/6.png,1,no,1,745,1,28,1
232,3,1,./static/experiments/de1c/materials/stim_files/1.png,./static/experiments/de1c/materials/stim_files/1.png,1,no,1,1059,1,28,1
233,4,1,./static/experiments/de1c/materials/stim_files/12.png,./static/experiments/de1c/materials/stim_files/4.png,0,yes,1,639,1,28,1
234,0,0,./static/experiments/de1c/materials/stim_files/10.png,./static/experiments/de1c/materials/stim_files/2.png,0,no,0,10893,1,8,4
235,1,0,./static/experiments/de1c/materials/stim_files/8.png,./static/experiments/de1c/materials/stim_files/12.png,1,yes,0,3347,1,8,4
236,2,0,./static/experiments/de1c/materials/stim_files/3.png,./static/experiments/de1c/materials/stim_files/7.png,1,yes,0,1909,1,8,4
237,3,0,./static/experiments/de1c/materials/stim_files/7.png,./static/experiments/de1c/materials/stim_files/11.png,1,no,1,2202,1,8,4
238,4,0,./static/experiments/de1c/materials/stim_files/9.png,./static/experiments/de1c/materials/stim_files/5.png,1,yes,0,3177,1,8,4
239,5,0,./static/experiments/de1c/materials/stim_files/6.png,./static/experiments/de1c/materials/stim_files/10.png,1,no,1,3069,1,8,4
240,6,0,./static/experiments/de1c/materials/stim_files/12.png,./static/experiments/de1c/materials/stim_files/4.png,0,yes,1,1431,1,8,4
241,7,0,./static/experiments/de1c/materials/stim_files/9.png,./static/experiments/de1c/materials/stim_files/1.png,0,yes,1,3917,1,8,4
242,8,0,./static/experiments/de1c/materials/stim_files/8.png,./static/experiments/de1c/materials/stim_files/4.png,1,yes,0,1056,1,8,4
243,9,0,./static/experiments/de1c/materials/stim_files/3.png,./static/experiments/de1c/materials/stim_files/11.png,0,yes,1,1236,1,8,4
244,10,0,./static/experiments/de1c/materials/stim_files/1.png,./static/experiments/de1c/materials/stim_files/9.png,0,yes,1,1235,1,8,4
245,11,0,./static/experiments/de1c/materials/stim_files/6.png,./static/experiments/de1c/materials/stim_files/2.png,1,yes,0,1754,1,8,4
246,12,0,./static/experiments/de1c/materials/stim_files/12.png,./static/experiments/de1c/materials/stim_files/4.png,0,yes,1,1404,1,8,4
247,13,0,./static/experiments/de1c/materials/stim_files/2.png,./static/experiments/de1c/materials/stim_files/10.png,0,yes,1,1452,1,8,4
248,14,0,./static/experiments/de1c/materials/stim_files/5.png,./static/experiments/de1c/materials/stim_files/1.png,1,no,1,1336,1,8,4
249,15,0,./static/experiments/de1c/materials/stim_files/11.png,./static/experiments/de1c/materials/stim_files/3.png,0,yes,1,1479,1,8,4
250,0,1,./static/experiments/de1c/materials/stim_files/4.png,./static/experiments/de1c/materials/stim_files/8.png,1,no,1,4665,1,8,4
251,1,1,./static/experiments/de1c/materials/stim_files/3.png,./static/experiments/de1c/materials/stim_files/11.png,0,yes,1,1667,1,8,4
252,2,1,./static/experiments/de1c/materials/stim_files/7.png,./static/experiments/de1c/materials/stim_files/3.png,1,no,1,2018,1,8,4
253,3,1,./static/experiments/de1c/materials/stim_files/5.png,./static/experiments/de1c/materials/stim_files/9.png,1,no,1,1314,1,8,4
254,4,1,./static/experiments/de1c/materials/stim_files/9.png,./static/experiments/de1c/materials/stim_files/1.png,0,yes,1,1358,1,8,4
255,5,1,./static/experiments/de1c/materials/stim_files/4.png,./static/experiments/de1c/materials/stim_files/12.png,0,yes,1,1019,1,8,4
256,6,1,./static/experiments/de1c/materials/stim_files/6.png,./static/experiments/de1c/materials/stim_files/2.png,1,no,1,1142,1,8,4
257,7,1,./static/experiments/de1c/materials/stim_files/9.png,./static/experiments/de1c/materials/stim_files/1.png,0,yes,1,3253,1,8,4
258,8,1,./static/experiments/de1c/materials/stim_files/11.png,./static/experiments/de1c/materials/stim_files/3.png,0,yes,1,4008,1,8,4
259,9,1,./static/experiments/de1c/materials/stim_files/12.png,./static/experiments/de1c/materials/stim_files/4.png,0,yes,1,7177,1,8,4
260,10,1,./static/experiments/de1c/materials/stim_files/12.png,./static/experiments/de1c/materials/stim_files/8.png,1,no,1,2484,1,8,4
261,11,1,./static/experiments/de1c/materials/stim_files/11.png,./static/experiments/de1c/materials/stim_files/7.png,1,no,1,1731,1,8,4
262,12,1,./static/experiments/de1c/materials/stim_files/2.png,./static/experiments/de1c/materials/stim_files/10.png,0,yes,1,1176,1,8,4
263,0,0,./static/experiments/de1c/materials/stim_files/1.png,./static/experiments/de1c/materials/stim_files/2.png,1,yes,0,3780,1,110,2
264,1,0,./static/experiments/de1c/materials/stim_files/2.png,./static/experiments/de1c/materials/stim_files/10.png,0,no,0,6923,1,110,2
265,2,0,./static/experiments/de1c/materials/stim_files/12.png,./static/experiments/de1c/materials/stim_files/4.png,0,yes,1,3306,1,110,2
266,3,0,./static/experiments/de1c/materials/stim_files/9.png,./static/experiments/de1c/materials/stim_files/1.png,0,no,0,3957,1,110,2
267,4,0,./static/experiments/de1c/materials/stim_files/3.png,./static/experiments/de1c/materials/stim_files/11.png,0,yes,1,7829,1,110,2
268,5,0,./static/experiments/de1c/materials/stim_files/7.png,./static/experiments/de1c/materials/stim_files/6.png,1,no,1,2902,1,110,2
269,6,0,./static/experiments/de1c/materials/stim_files/10.png,./static/experiments/de1c/materials/stim_files/2.png,0,yes,1,1263,1,110,2
270,7,0,./static/experiments/de1c/materials/stim_files/11.png,./static/experiments/de1c/materials/stim_files/3.png,0,yes,1,1585,1,110,2
271,8,0,./static/experiments/de1c/materials/stim_files/7.png,./static/experiments/de1c/materials/stim_files/8.png,1,no,1,1264,1,110,2
272,9,0,./static/experiments/de1c/materials/stim_files/5.png,./static/experiments/de1c/materials/stim_files/4.png,1,no,1,2386,1,110,2
273,10,0,./static/experiments/de1c/materials/stim_files/4.png,./static/experiments/de1c/materials/stim_files/3.png,1,no,1,1368,1,110,2
274,11,0,./static/experiments/de1c/materials/stim_files/5.png,./static/experiments/de1c/materials/stim_files/6.png,1,no,1,1371,1,110,2
275,12,0,./static/experiments/de1c/materials/stim_files/1.png,./static/experiments/de1c/materials/stim_files/9.png,0,yes,1,1207,1,110,2
276,13,0,./static/experiments/de1c/materials/stim_files/3.png,./static/experiments/de1c/materials/stim_files/2.png,1,yes,0,3178,1,110,2
277,14,0,./static/experiments/de1c/materials/stim_files/4.png,./static/experiments/de1c/materials/stim_files/12.png,0,no,0,1233,1,110,2
278,0,1,./static/experiments/de1c/materials/stim_files/9.png,./static/experiments/de1c/materials/stim_files/1.png,0,yes,1,2459,1,110,2
279,1,1,./static/experiments/de1c/materials/stim_files/10.png,./static/experiments/de1c/materials/stim_files/2.png,0,yes,1,2951,1,110,2
280,2,1,./static/experiments/de1c/materials/stim_files/1.png,./static/experiments/de1c/materials/stim_files/9.png,0,yes,1,1094,1,110,2
281,3,1,./static/experiments/de1c/materials/stim_files/4.png,./static/experiments/de1c/materials/stim_files/12.png,0,yes,1,1005,1,110,2
282,4,1,./static/experiments/de1c/materials/stim_files/3.png,./static/experiments/de1c/materials/stim_files/11.png,0,yes,1,959,1,110,2
283,5,1,./static/experiments/de1c/materials/stim_files/4.png,./static/experiments/de1c/materials/stim_files/12.png,0,yes,1,1500,1,110,2
284,6,1,./static/experiments/de1c/materials/stim_files/5.png,./static/experiments/de1c/materials/stim_files/6.png,1,no,1,1773,1,110,2
285,7,1,./static/experiments/de1c/materials/stim_files/4.png,./static/experiments/de1c/materials/stim_files/5.png,1,no,1,998,1,110,2
286,8,1,./static/experiments/de1c/materials/stim_files/3.png,./static/experiments/de1c/materials/stim_files/2.png,1,no,1,1362,1,110,2
287,9,1,./static/experiments/de1c/materials/stim_files/2.png,./static/experiments/de1c/materials/stim_files/1.png,1,no,1,1264,1,110,2
288,10,1,./static/experiments/de1c/materials/stim_files/10.png,./static/experiments/de1c/materials/stim_files/2.png,0,yes,1,1127,1,110,2
289,11,1,./static/experiments/de1c/materials/stim_files/7.png,./static/experiments/de1c/materials/stim_files/8.png,1,yes,0,893,1,110,2
290,12,1,./static/experiments/de1c/materials/stim_files/11.png,./static/experiments/de1c/materials/stim_files/3.png,0,yes,1,1096,1,110,2
291,13,1,./static/experiments/de1c/materials/stim_files/3.png,./static/experiments/de1c/materials/stim_files/4.png,1,no,1,894,1,110,2
292,14,1,./static/experiments/de1c/materials/stim_files/7.png,./static/experiments/de1c/materials/stim_files/6.png,1,no,1,1862,1,110,2
293,0,2,./static/experiments/de1c/materials/stim_files/4.png,./static/experiments/de1c/materials/stim_files/3.png,1,no,1,1103,1,110,2
294,1,2,./static/experiments/de1c/materials/stim_files/5.png,./static/experiments/de1c/materials/stim_files/6.png,1,no,1,1588,1,110,2
295,2,2,./static/experiments/de1c/materials/stim_files/12.png,./static/experiments/de1c/materials/stim_files/4.png,0,yes,1,1660,1,110,2
296,3,2,./static/experiments/de1c/materials/stim_files/3.png,./static/experiments/de1c/materials/stim_files/11.png,0,yes,1,1103,1,110,2
297,4,2,./static/experiments/de1c/materials/stim_files/4.png,./static/experiments/de1c/materials/stim_files/5.png,1,no,1,1786,1,110,2
298,0,0,./static/experiments/de1c/materials/stim_files/1.png,./static/experiments/de1c/materials/stim_files/2.png,1,yes,0,23071,1,48,2
299,1,0,./static/experiments/de1c/materials/stim_files/3.png,./static/experiments/de1c/materials/stim_files/4.png,1,no,1,16229,1,48,2
300,2,0,./static/experiments/de1c/materials/stim_files/5.png,./static/experiments/de1c/materials/stim_files/6.png,1,no,1,6648,1,48,2
301,3,0,./static/experiments/de1c/materials/stim_files/5.png,./static/experiments/de1c/materials/stim_files/4.png,1,yes,0,5275,1,48,2
302,4,0,./static/experiments/de1c/materials/stim_files/12.png,./static/experiments/de1c/materials/stim_files/4.png,0,yes,1,2557,1,48,2
303,5,0,./static/experiments/de1c/materials/stim_files/2.png,./static/experiments/de1c/materials/stim_files/3.png,1,no,1,2735,1,48,2
304,6,0,./static/experiments/de1c/materials/stim_files/8.png,./static/experiments/de1c/materials/stim_files/7.png,1,no,1,3727,1,48,2
305,7,0,./static/experiments/de1c/materials/stim_files/10.png,./static/experiments/de1c/materials/stim_files/2.png,0,yes,1,2139,1,48,2
306,8,0,./static/experiments/de1c/materials/stim_files/9.png,./static/experiments/de1c/materials/stim_files/1.png,0,yes,1,1784,1,48,2
307,9,0,./static/experiments/de1c/materials/stim_files/10.png,./static/experiments/de1c/materials/stim_files/2.png,0,yes,1,980,1,48,2
308,10,0,./static/experiments/de1c/materials/stim_files/4.png,./static/experiments/de1c/materials/stim_files/12.png,0,yes,1,1336,1,48,2
309,11,0,./static/experiments/de1c/materials/stim_files/1.png,./static/experiments/de1c/materials/stim_files/9.png,0,yes,1,1399,1,48,2
310,12,0,./static/experiments/de1c/materials/stim_files/11.png,./static/experiments/de1c/materials/stim_files/3.png,0,yes,1,1077,1,48,2
311,13,0,./static/experiments/de1c/materials/stim_files/7.png,./static/experiments/de1c/materials/stim_files/6.png,1,no,1,2407,1,48,2
312,14,0,./static/experiments/de1c/materials/stim_files/11.png,./static/experiments/de1c/materials/stim_files/3.png,0,yes,1,1319,1,48,2
313,0,1,./static/experiments/de1c/materials/stim_files/12.png,./static/experiments/de1c/materials/stim_files/4.png,0,yes,1,1161,1,48,2
314,1,1,./static/experiments/de1c/materials/stim_files/3.png,./static/experiments/de1c/materials/stim_files/4.png,1,no,1,1161,1,48,2
315,2,1,./static/experiments/de1c/materials/stim_files/6.png,./static/experiments/de1c/materials/stim_files/5.png,1,no,1,8934,1,48,2
316,3,1,./static/experiments/de1c/materials/stim_files/2.png,./static/experiments/de1c/materials/stim_files/10.png,0,yes,1,1085,1,48,2
317,4,1,./static/experiments/de1c/materials/stim_files/3.png,./static/experiments/de1c/materials/stim_files/2.png,1,no,1,2765,1,48,2
318,5,1,./static/experiments/de1c/materials/stim_files/4.png,./static/experiments/de1c/materials/stim_files/5.png,1,no,1,1253,1,48,2
319,0,0,./static/experiments/de1c/materials/stim_files/10.png,./static/experiments/de1c/materials/stim_files/2.png,0,no,0,9839,1,96,1
320,1,0,./static/experiments/de1c/materials/stim_files/1.png,./static/experiments/de1c/materials/stim_files/1.png,1,no,1,3934,1,96,1
321,2,0,./static/experiments/de1c/materials/stim_files/4.png,./static/experiments/de1c/materials/stim_files/12.png,0,yes,1,2811,1,96,1
322,3,0,./static/experiments/de1c/materials/stim_files/5.png,./static/experiments/de1c/materials/stim_files/5.png,1,no,1,1156,1,96,1
323,4,0,./static/experiments/de1c/materials/stim_files/9.png,./static/experiments/de1c/materials/stim_files/1.png,0,yes,1,1402,1,96,1
324,5,0,./static/experiments/de1c/materials/stim_files/2.png,./static/experiments/de1c/materials/stim_files/2.png,1,no,1,1097,1,96,1
325,6,0,./static/experiments/de1c/materials/stim_files/9.png,./static/experiments/de1c/materials/stim_files/1.png,0,yes,1,2205,1,96,1
326,7,0,./static/experiments/de1c/materials/stim_files/6.png,./static/experiments/de1c/materials/stim_files/6.png,1,no,1,1977,1,96,1
327,8,0,./static/experiments/de1c/materials/stim_files/11.png,./static/experiments/de1c/materials/stim_files/3.png,0,yes,1,1875,1,96,1
328,9,0,./static/experiments/de1c/materials/stim_files/2.png,./static/experiments/de1c/materials/stim_files/10.png,0,yes,1,1202,1,96,1
329,10,0,./static/experiments/de1c/materials/stim_files/3.png,./static/experiments/de1c/materials/stim_files/3.png,1,no,1,711,1,96,1
330,11,0,./static/experiments/de1c/materials/stim_files/7.png,./static/experiments/de1c/materials/stim_files/7.png,1,no,1,1299,1,96,1
331,12,0,./static/experiments/de1c/materials/stim_files/4.png,./static/experiments/de1c/materials/stim_files/4.png,1,no,1,690,1,96,1
332,13,0,./static/experiments/de1c/materials/stim_files/11.png,./static/experiments/de1c/materials/stim_files/3.png,0,yes,1,665,1,96,1
333,14,0,./static/experiments/de1c/materials/stim_files/8.png,./static/experiments/de1c/materials/stim_files/8.png,1,no,1,563,1,96,1
334,15,0,./static/experiments/de1c/materials/stim_files/12.png,./static/experiments/de1c/materials/stim_files/4.png,0,yes,1,663,1,96,1
335,0,1,./static/experiments/de1c/materials/stim_files/4.png,./static/experiments/de1c/materials/stim_files/12.png,0,no,0,525,1,96,1
336,1,1,./static/experiments/de1c/materials/stim_files/3.png,./static/experiments/de1c/materials/stim_files/3.png,1,no,1,868,1,96,1
337,2,1,./static/experiments/de1c/materials/stim_files/4.png,./static/experiments/de1c/materials/stim_files/12.png,0,yes,1,1534,1,96,1
338,3,1,./static/experiments/de1c/materials/stim_files/11.png,./static/experiments/de1c/materials/stim_files/3.png,0,yes,1,677,1,96,1
339,4,1,./static/experiments/de1c/materials/stim_files/1.png,./static/experiments/de1c/materials/stim_files/1.png,1,no,1,546,1,96,1
340,0,0,./static/experiments/de1c/materials/stim_files/2.png,./static/experiments/de1c/materials/stim_files/10.png,0,no,0,5723,1,122,1
341,1,0,./static/experiments/de1c/materials/stim_files/6.png,./static/experiments/de1c/materials/stim_files/6.png,1,yes,0,1253,1,122,1
342,2,0,./static/experiments/de1c/materials/stim_files/1.png,./static/experiments/de1c/materials/stim_files/9.png,0,yes,1,1142,1,122,1
343,3,0,./static/experiments/de1c/materials/stim_files/11.png,./static/experiments/de1c/materials/stim_files/3.png,0,yes,1,1199,1,122,1
344,4,0,./static/experiments/de1c/materials/stim_files/4.png,./static/experiments/de1c/materials/stim_files/12.png,0,yes,1,837,1,122,1
345,5,0,./static/experiments/de1c/materials/stim_files/1.png,./static/experiments/de1c/materials/stim_files/1.png,1,no,1,1021,1,122,1
346,6,0,./static/experiments/de1c/materials/stim_files/4.png,./static/experiments/de1c/materials/stim_files/4.png,1,no,1,1116,1,122,1
347,7,0,./static/experiments/de1c/materials/stim_files/9.png,./static/experiments/de1c/materials/stim_files/1.png,0,yes,1,1257,1,122,1
348,8,0,./static/experiments/de1c/materials/stim_files/7.png,./static/experiments/de1c/materials/stim_files/7.png,1,no,1,853,1,122,1
349,9,0,./static/experiments/de1c/materials/stim_files/8.png,./static/experiments/de1c/materials/stim_files/8.png,1,no,1,876,1,122,1
350,10,0,./static/experiments/de1c/materials/stim_files/2.png,./static/experiments/de1c/materials/stim_files/10.png,0,yes,1,797,1,122,1
351,11,0,./static/experiments/de1c/materials/stim_files/3.png,./static/experiments/de1c/materials/stim_files/3.png,1,no,1,1168,1,122,1
352,12,0,./static/experiments/de1c/materials/stim_files/2.png,./static/experiments/de1c/materials/stim_files/2.png,1,no,1,825,1,122,1
353,13,0,./static/experiments/de1c/materials/stim_files/4.png,./static/experiments/de1c/materials/stim_files/12.png,0,yes,1,948,1,122,1
354,14,0,./static/experiments/de1c/materials/stim_files/5.png,./static/experiments/de1c/materials/stim_files/5.png,1,no,1,844,1,122,1
355,15,0,./static/experiments/de1c/materials/stim_files/3.png,./static/experiments/de1c/materials/stim_files/11.png,0,yes,1,739,1,122,1
356,0,1,./static/experiments/de1c/materials/stim_files/4.png,./static/experiments/de1c/materials/stim_files/12.png,0,yes,1,1014,1,122,1
357,1,1,./static/experiments/de1c/materials/stim_files/2.png,./static/experiments/de1c/materials/stim_files/10.png,0,yes,1,740,1,122,1
358,2,1,./static/experiments/de1c/materials/stim_files/1.png,./static/experiments/de1c/materials/stim_files/9.png,0,yes,1,740,1,122,1
359,3,1,./static/experiments/de1c/materials/stim_files/4.png,./static/experiments/de1c/materials/stim_files/12.png,0,yes,1,539,1,122,1
360,4,1,./static/experiments/de1c/materials/stim_files/4.png,./static/experiments/de1c/materials/stim_files/4.png,1,yes,0,411,1,122,1
361,5,1,./static/experiments/de1c/materials/stim_files/5.png,./static/experiments/de1c/materials/stim_files/5.png,1,no,1,804,1,122,1
362,0,0,./static/experiments/de1c/materials/stim_files/3.png,./static/experiments/de1c/materials/stim_files/3.png,1,yes,0,11999,1,115,1
363,1,0,./static/experiments/de1c/materials/stim_files/2.png,./static/experiments/de1c/materials/stim_files/10.png,0,no,0,3139,1,115,1
364,2,0,./static/experiments/de1c/materials/stim_files/12.png,./static/experiments/de1c/materials/stim_files/4.png,0,no,0,2338,1,115,1
365,3,0,./static/experiments/de1c/materials/stim_files/9.png,./static/experiments/de1c/materials/stim_files/1.png,0,yes,1,13373,1,115,1
366,4,0,./static/experiments/de1c/materials/stim_files/6.png,./static/experiments/de1c/materials/stim_files/6.png,1,no,1,1673,1,115,1
367,5,0,./static/experiments/de1c/materials/stim_files/11.png,./static/experiments/de1c/materials/stim_files/3.png,0,yes,1,1330,1,115,1
368,6,0,./static/experiments/de1c/materials/stim_files/1.png,./static/experiments/de1c/materials/stim_files/1.png,1,no,1,1490,1,115,1
369,7,0,./static/experiments/de1c/materials/stim_files/8.png,./static/experiments/de1c/materials/stim_files/8.png,1,no,1,1280,1,115,1
370,8,0,./static/experiments/de1c/materials/stim_files/7.png,./static/experiments/de1c/materials/stim_files/7.png,1,no,1,1125,1,115,1
371,9,0,./static/experiments/de1c/materials/stim_files/11.png,./static/experiments/de1c/materials/stim_files/3.png,0,yes,1,1219,1,115,1
372,10,0,./static/experiments/de1c/materials/stim_files/2.png,./static/experiments/de1c/materials/stim_files/10.png,0,yes,1,1000,1,115,1
373,11,0,./static/experiments/de1c/materials/stim_files/12.png,./static/experiments/de1c/materials/stim_files/4.png,0,yes,1,696,1,115,1
374,12,0,./static/experiments/de1c/materials/stim_files/4.png,./static/experiments/de1c/materials/stim_files/4.png,1,no,1,1374,1,115,1
375,13,0,./static/experiments/de1c/materials/stim_files/2.png,./static/experiments/de1c/materials/stim_files/2.png,1,no,1,2210,1,115,1
376,14,0,./static/experiments/de1c/materials/stim_files/9.png,./static/experiments/de1c/materials/stim_files/1.png,0,yes,1,1416,1,115,1
377,15,0,./static/experiments/de1c/materials/stim_files/5.png,./static/experiments/de1c/materials/stim_files/5.png,1,no,1,729,1,115,1
378,0,1,./static/experiments/de1c/materials/stim_files/2.png,./static/experiments/de1c/materials/stim_files/2.png,1,yes,0,544,1,115,1
379,1,1,./static/experiments/de1c/materials/stim_files/4.png,./static/experiments/de1c/materials/stim_files/12.png,0,yes,1,1867,1,115,1
380,2,1,./static/experiments/de1c/materials/stim_files/7.png,./static/experiments/de1c/materials/stim_files/7.png,1,no,1,1316,1,115,1
381,3,1,./static/experiments/de1c/materials/stim_files/5.png,./static/experiments/de1c/materials/stim_files/5.png,1,no,1,1645,1,115,1
382,4,1,./static/experiments/de1c/materials/stim_files/1.png,./static/experiments/de1c/materials/stim_files/1.png,1,no,1,2907,1,115,1
383,5,1,./static/experiments/de1c/materials/stim_files/12.png,./static/experiments/de1c/materials/stim_files/4.png,0,yes,1,1243,1,115,1
384,6,1,./static/experiments/de1c/materials/stim_files/4.png,./static/experiments/de1c/materials/stim_files/4.png,1,no,1,1287,1,115,1
385,0,0,./static/experiments/de1c/materials/stim_files/5.png,./static/experiments/de1c/materials/stim_files/1.png,1,no,1,17594,1,95,4
386,1,0,./static/experiments/de1c/materials/stim_files/12.png,./static/experiments/de1c/materials/stim_files/8.png,1,yes,0,5939,1,95,4
387,2,0,./static/experiments/de1c/materials/stim_files/8.png,./static/experiments/de1c/materials/stim_files/4.png,1,no,1,2979,1,95,4
388,3,0,./static/experiments/de1c/materials/stim_files/9.png,./static/experiments/de1c/materials/stim_files/5.png,1,no,1,2034,1,95,4
389,4,0,./static/experiments/de1c/materials/stim_files/11.png,./static/experiments/de1c/materials/stim_files/7.png,1,no,1,1875,1,95,4
390,5,0,./static/experiments/de1c/materials/stim_files/3.png,./static/experiments/de1c/materials/stim_files/11.png,0,no,0,1391,1,95,4
391,6,0,./static/experiments/de1c/materials/stim_files/4.png,./static/experiments/de1c/materials/stim_files/12.png,0,yes,1,3328,1,95,4
392,7,0,./static/experiments/de1c/materials/stim_files/9.png,./static/experiments/de1c/materials/stim_files/1.png,0,yes,1,6811,1,95,4
393,8,0,./static/experiments/de1c/materials/stim_files/2.png,./static/experiments/de1c/materials/stim_files/6.png,1,no,1,2786,1,95,4
394,9,0,./static/experiments/de1c/materials/stim_files/4.png,./static/experiments/de1c/materials/stim_files/12.png,0,no,0,3493,1,95,4
395,10,0,./static/experiments/de1c/materials/stim_files/10.png,./static/experiments/de1c/materials/stim_files/6.png,1,no,1,2138,1,95,4
396,11,0,./static/experiments/de1c/materials/stim_files/10.png,./static/experiments/de1c/materials/stim_files/2.png,0,yes,1,2508,1,95,4
397,12,0,./static/experiments/de1c/materials/stim_files/2.png,./static/experiments/de1c/materials/stim_files/10.png,0,yes,1,2320,1,95,4
398,13,0,./static/experiments/de1c/materials/stim_files/9.png,./static/experiments/de1c/materials/stim_files/1.png,0,yes,1,2470,1,95,4
399,14,0,./static/experiments/de1c/materials/stim_files/3.png,./static/experiments/de1c/materials/stim_files/11.png,0,yes,1,1762,1,95,4
400,15,0,./static/experiments/de1c/materials/stim_files/3.png,./static/experiments/de1c/materials/stim_files/7.png,1,no,1,2565,1,95,4
401,0,1,./static/experiments/de1c/materials/stim_files/6.png,./static/experiments/de1c/materials/stim_files/2.png,1,no,1,7111,1,95,4
402,1,1,./static/experiments/de1c/materials/stim_files/1.png,./static/experiments/de1c/materials/stim_files/9.png,0,yes,1,2766,1,95,4
403,2,1,./static/experiments/de1c/materials/stim_files/3.png,./static/experiments/de1c/materials/stim_files/7.png,1,no,1,2470,1,95,4
404,3,1,./static/experiments/de1c/materials/stim_files/7.png,./static/experiments/de1c/materials/stim_files/11.png,1,no,1,4722,1,95,4
405,4,1,./static/experiments/de1c/materials/stim_files/4.png,./static/experiments/de1c/materials/stim_files/8.png,1,no,1,2256,1,95,4
406,5,1,./static/experiments/de1c/materials/stim_files/2.png,./static/experiments/de1c/materials/stim_files/10.png,0,no,0,1422,1,95,4
407,6,1,./static/experiments/de1c/materials/stim_files/12.png,./static/experiments/de1c/materials/stim_files/8.png,1,no,1,1663,1,95,4
408,7,1,./static/experiments/de1c/materials/stim_files/5.png,./static/experiments/de1c/materials/stim_files/9.png,1,no,1,2041,1,95,4
409,8,1,./static/experiments/de1c/materials/stim_files/1.png,./static/experiments/de1c/materials/stim_files/5.png,1,no,1,1949,1,95,4
410,9,1,./static/experiments/de1c/materials/stim_files/10.png,./static/experiments/de1c/materials/stim_files/6.png,1,no,1,1274,1,95,4
411,10,1,./static/experiments/de1c/materials/stim_files/9.png,./static/experiments/de1c/materials/stim_files/1.png,0,yes,1,2016,1,95,4
412,11,1,./static/experiments/de1c/materials/stim_files/4.png,./static/experiments/de1c/materials/stim_files/12.png,0,no,0,4026,1,95,4
413,12,1,./static/experiments/de1c/materials/stim_files/11.png,./static/experiments/de1c/materials/stim_files/3.png,0,yes,1,2449,1,95,4
414,13,1,./static/experiments/de1c/materials/stim_files/12.png,./static/experiments/de1c/materials/stim_files/4.png,0,yes,1,1705,1,95,4
415,14,1,./static/experiments/de1c/materials/stim_files/2.png,./static/experiments/de1c/materials/stim_files/10.png,0,yes,1,1704,1,95,4
416,15,1,./static/experiments/de1c/materials/stim_files/3.png,./static/experiments/de1c/materials/stim_files/11.png,0,yes,1,881,1,95,4
417,0,2,./static/experiments/de1c/materials/stim_files/3.png,./static/experiments/de1c/materials/stim_files/11.png,0,yes,1,781,1,95,4
418,1,2,./static/experiments/de1c/materials/stim_files/2.png,./static/experiments/de1c/materials/stim_files/10.png,0,yes,1,716,1,95,4
419,2,2,./static/experiments/de1c/materials/stim_files/7.png,./static/experiments/de1c/materials/stim_files/3.png,1,no,1,3227,1,95,4
420,3,2,./static/experiments/de1c/materials/stim_files/1.png,./static/experiments/de1c/materials/stim_files/9.png,0,yes,1,1455,1,95,4
421,4,2,./static/experiments/de1c/materials/stim_files/5.png,./static/experiments/de1c/materials/stim_files/9.png,1,no,1,1435,1,95,4
422,5,2,./static/experiments/de1c/materials/stim_files/8.png,./static/experiments/de1c/materials/stim_files/12.png,1,no,1,4310,1,95,4
423,6,2,./static/experiments/de1c/materials/stim_files/11.png,./static/experiments/de1c/materials/stim_files/7.png,1,no,1,1966,1,95,4
424,7,2,./static/experiments/de1c/materials/stim_files/2.png,./static/experiments/de1c/materials/stim_files/10.png,0,yes,1,3261,1,95,4
425,8,2,./static/experiments/de1c/materials/stim_files/5.png,./static/experiments/de1c/materials/stim_files/1.png,1,no,1,3391,1,95,4
426,9,2,./static/experiments/de1c/materials/stim_files/6.png,./static/experiments/de1c/materials/stim_files/10.png,1,no,1,11472,1,95,4
427,0,0,./static/experiments/de1c/materials/stim_files/11.png,./static/experiments/de1c/materials/stim_files/3.png,0,no,0,17215,1,141,1
428,1,0,./static/experiments/de1c/materials/stim_files/3.png,./static/experiments/de1c/materials/stim_files/3.png,1,yes,0,2448,1,141,1
429,2,0,./static/experiments/de1c/materials/stim_files/1.png,./static/experiments/de1c/materials/stim_files/1.png,1,yes,0,1510,1,141,1
430,3,0,./static/experiments/de1c/materials/stim_files/6.png,./static/experiments/de1c/materials/stim_files/6.png,1,no,1,331,1,141,1
431,4,0,./static/experiments/de1c/materials/stim_files/9.png,./static/experiments/de1c/materials/stim_files/1.png,0,no,0,2200,1,141,1
432,5,0,./static/experiments/de1c/materials/stim_files/7.png,./static/experiments/de1c/materials/stim_files/7.png,1,yes,0,167,1,141,1
433,6,0,./static/experiments/de1c/materials/stim_files/10.png,./static/experiments/de1c/materials/stim_files/2.png,0,no,0,413,1,141,1
434,7,0,./static/experiments/de1c/materials/stim_files/8.png,./static/experiments/de1c/materials/stim_files/8.png,1,no,1,643,1,141,1
435,8,0,./static/experiments/de1c/materials/stim_files/3.png,./static/experiments/de1c/materials/stim_files/11.png,0,no,0,1426,1,141,1
436,9,0,./static/experiments/de1c/materials/stim_files/2.png,./static/experiments/de1c/materials/stim_files/10.png,0,yes,1,843,1,141,1
437,10,0,./static/experiments/de1c/materials/stim_files/4.png,./static/experiments/de1c/materials/stim_files/12.png,0,yes,1,1560,1,141,1
438,11,0,./static/experiments/de1c/materials/stim_files/5.png,./static/experiments/de1c/materials/stim_files/5.png,1,no,1,1287,1,141,1
439,12,0,./static/experiments/de1c/materials/stim_files/4.png,./static/experiments/de1c/materials/stim_files/4.png,1,no,1,1542,1,141,1
440,13,0,./static/experiments/de1c/materials/stim_files/2.png,./static/experiments/de1c/materials/stim_files/2.png,1,no,1,821,1,141,1
441,14,0,./static/experiments/de1c/materials/stim_files/1.png,./static/experiments/de1c/materials/stim_files/9.png,0,yes,1,815,1,141,1
442,15,0,./static/experiments/de1c/materials/stim_files/12.png,./static/experiments/de1c/materials/stim_files/4.png,0,yes,1,731,1,141,1
443,0,1,./static/experiments/de1c/materials/stim_files/2.png,./static/experiments/de1c/materials/stim_files/10.png,0,yes,1,808,1,141,1
444,1,1,./static/experiments/de1c/materials/stim_files/9.png,./static/experiments/de1c/materials/stim_files/1.png,0,yes,1,1022,1,141,1
445,2,1,./static/experiments/de1c/materials/stim_files/11.png,./static/experiments/de1c/materials/stim_files/3.png,0,yes,1,551,1,141,1
446,3,1,./static/experiments/de1c/materials/stim_files/3.png,./static/experiments/de1c/materials/stim_files/3.png,1,no,1,517,1,141,1
447,4,1,./static/experiments/de1c/materials/stim_files/9.png,./static/experiments/de1c/materials/stim_files/1.png,0,yes,1,673,1,141,1
448,5,1,./static/experiments/de1c/materials/stim_files/12.png,./static/experiments/de1c/materials/stim_files/4.png,0,yes,1,1334,1,141,1
449,6,1,./static/experiments/de1c/materials/stim_files/7.png,./static/experiments/de1c/materials/stim_files/7.png,1,no,1,866,1,141,1
450,7,1,./static/experiments/de1c/materials/stim_files/4.png,./static/experiments/de1c/materials/stim_files/4.png,1,no,1,1379,1,141,1
451,8,1,./static/experiments/de1c/materials/stim_files/5.png,./static/experiments/de1c/materials/stim_files/5.png,1,no,1,780,1,141,1
452,9,1,./static/experiments/de1c/materials/stim_files/1.png,./static/experiments/de1c/materials/stim_files/1.png,1,no,1,599,1,141,1
453,10,1,./static/experiments/de1c/materials/stim_files/2.png,./static/experiments/de1c/materials/stim_files/2.png,1,no,1,563,1,141,1
454,0,0,./static/experiments/de1c/materials/stim_files/8.png,./static/experiments/de1c/materials/stim_files/4.png,1,yes,0,47298,1,58,4
455,1,0,./static/experiments/de1c/materials/stim_files/12.png,./static/experiments/de1c/materials/stim_files/8.png,1,yes,0,13261,1,58,4
456,2,0,./static/experiments/de1c/materials/stim_files/1.png,./static/experiments/de1c/materials/stim_files/5.png,1,no,1,3621,1,58,4
457,3,0,./static/experiments/de1c/materials/stim_files/5.png,./static/experiments/de1c/materials/stim_files/9.png,1,no,1,1225,1,58,4
458,4,0,./static/experiments/de1c/materials/stim_files/7.png,./static/experiments/de1c/materials/stim_files/3.png,1,no,1,2901,1,58,4
459,5,0,./static/experiments/de1c/materials/stim_files/9.png,./static/experiments/de1c/materials/stim_files/1.png,0,no,0,2670,1,58,4
460,6,0,./static/experiments/de1c/materials/stim_files/1.png,./static/experiments/de1c/materials/stim_files/9.png,0,yes,1,19992,1,58,4
461,7,0,./static/experiments/de1c/materials/stim_files/4.png,./static/experiments/de1c/materials/stim_files/12.png,0,no,0,2431,1,58,4
462,8,0,./static/experiments/de1c/materials/stim_files/10.png,./static/experiments/de1c/materials/stim_files/2.png,0,yes,1,6394,1,58,4
463,9,0,./static/experiments/de1c/materials/stim_files/7.png,./static/experiments/de1c/materials/stim_files/11.png,1,no,1,1976,1,58,4
464,10,0,./static/experiments/de1c/materials/stim_files/2.png,./static/experiments/de1c/materials/stim_files/10.png,0,yes,1,6058,1,58,4
465,11,0,./static/experiments/de1c/materials/stim_files/11.png,./static/experiments/de1c/materials/stim_files/3.png,0,no,0,4932,1,58,4
466,12,0,./static/experiments/de1c/materials/stim_files/2.png,./static/experiments/de1c/materials/stim_files/6.png,1,no,1,5705,1,58,4
467,13,0,./static/experiments/de1c/materials/stim_files/11.png,./static/experiments/de1c/materials/stim_files/3.png,0,yes,1,5450,1,58,4
468,14,0,./static/experiments/de1c/materials/stim_files/12.png,./static/experiments/de1c/materials/stim_files/4.png,0,yes,1,2521,1,58,4
469,15,0,./static/experiments/de1c/materials/stim_files/6.png,./static/experiments/de1c/materials/stim_files/10.png,1,no,1,2025,1,58,4
470,0,1,./static/experiments/de1c/materials/stim_files/11.png,./static/experiments/de1c/materials/stim_files/3.png,0,no,0,3837,1,58,4
471,1,1,./static/experiments/de1c/materials/stim_files/10.png,./static/experiments/de1c/materials/stim_files/2.png,0,yes,1,887,1,58,4
472,2,1,./static/experiments/de1c/materials/stim_files/1.png,./static/experiments/de1c/materials/stim_files/9.png,0,yes,1,1539,1,58,4
473,3,1,./static/experiments/de1c/materials/stim_files/6.png,./static/experiments/de1c/materials/stim_files/10.png,1,no,1,1754,1,58,4
474,4,1,./static/experiments/de1c/materials/stim_files/8.png,./static/experiments/de1c/materials/stim_files/12.png,1,no,1,1023,1,58,4
475,5,1,./static/experiments/de1c/materials/stim_files/12.png,./static/experiments/de1c/materials/stim_files/4.png,0,no,0,2566,1,58,4
476,6,1,./static/experiments/de1c/materials/stim_files/2.png,./static/experiments/de1c/materials/stim_files/10.png,0,yes,1,2869,1,58,4
477,7,1,./static/experiments/de1c/materials/stim_files/1.png,./static/experiments/de1c/materials/stim_files/9.png,0,yes,1,5206,1,58,4
478,8,1,./static/experiments/de1c/materials/stim_files/2.png,./static/experiments/de1c/materials/stim_files/6.png,1,no,1,2802,1,58,4
479,9,1,./static/experiments/de1c/materials/stim_files/8.png,./static/experiments/de1c/materials/stim_files/4.png,1,no,1,1473,1,58,4
480,10,1,./static/experiments/de1c/materials/stim_files/3.png,./static/experiments/de1c/materials/stim_files/7.png,1,no,1,1849,1,58,4
481,11,1,./static/experiments/de1c/materials/stim_files/11.png,./static/experiments/de1c/materials/stim_files/7.png,1,no,1,2442,1,58,4
482,12,1,./static/experiments/de1c/materials/stim_files/12.png,./static/experiments/de1c/materials/stim_files/4.png,0,yes,1,1393,1,58,4
483,13,1,./static/experiments/de1c/materials/stim_files/5.png,./static/experiments/de1c/materials/stim_files/9.png,1,no,1,1580,1,58,4
484,14,1,./static/experiments/de1c/materials/stim_files/1.png,./static/experiments/de1c/materials/stim_files/5.png,1,yes,0,5364,1,58,4
485,15,1,./static/experiments/de1c/materials/stim_files/3.png,./static/experiments/de1c/materials/stim_files/11.png,0,yes,1,2121,1,58,4
486,0,2,./static/experiments/de1c/materials/stim_files/10.png,./static/experiments/de1c/materials/stim_files/2.png,0,yes,1,1629,1,58,4
487,1,2,./static/experiments/de1c/materials/stim_files/7.png,./static/experiments/de1c/materials/stim_files/11.png,1,no,1,897,1,58,4
488,2,2,./static/experiments/de1c/materials/stim_files/2.png,./static/experiments/de1c/materials/stim_files/6.png,1,no,1,2877,1,58,4
489,3,2,./static/experiments/de1c/materials/stim_files/10.png,./static/experiments/de1c/materials/stim_files/6.png,1,no,1,1165,1,58,4
490,4,2,./static/experiments/de1c/materials/stim_files/4.png,./static/experiments/de1c/materials/stim_files/12.png,0,yes,1,2556,1,58,4
491,5,2,./static/experiments/de1c/materials/stim_files/8.png,./static/experiments/de1c/materials/stim_files/4.png,1,no,1,2489,1,58,4
492,6,2,./static/experiments/de1c/materials/stim_files/10.png,./static/experiments/de1c/materials/stim_files/2.png,0,yes,1,1433,1,58,4
493,7,2,./static/experiments/de1c/materials/stim_files/12.png,./static/experiments/de1c/materials/stim_files/8.png,1,no,1,1192,1,58,4
494,8,2,./static/experiments/de1c/materials/stim_files/1.png,./static/experiments/de1c/materials/stim_files/5.png,1,yes,0,10795,1,58,4
495,9,2,./static/experiments/de1c/materials/stim_files/1.png,./static/experiments/de1c/materials/stim_files/9.png,0,yes,1,2253,1,58,4
496,10,2,./static/experiments/de1c/materials/stim_files/11.png,./static/experiments/de1c/materials/stim_files/3.png,0,yes,1,2603,1,58,4
497,11,2,./static/experiments/de1c/materials/stim_files/9.png,./static/experiments/de1c/materials/stim_files/5.png,1,no,1,3328,1,58,4
498,12,2,./static/experiments/de1c/materials/stim_files/1.png,./static/experiments/de1c/materials/stim_files/9.png,0,yes,1,1169,1,58,4
499,13,2,./static/experiments/de1c/materials/stim_files/3.png,./static/experiments/de1c/materials/stim_files/11.png,0,yes,1,3272,1,58,4
500,14,2,./static/experiments/de1c/materials/stim_files/7.png,./static/experiments/de1c/materials/stim_files/3.png,1,no,1,2061,1,58,4
501,15,2,./static/experiments/de1c/materials/stim_files/12.png,./static/experiments/de1c/materials/stim_files/4.png,0,yes,1,956,1,58,4
502,0,3,./static/experiments/de1c/materials/stim_files/7.png,./static/experiments/de1c/materials/stim_files/3.png,1,no,1,2340,1,58,4
503,1,3,./static/experiments/de1c/materials/stim_files/8.png,./static/experiments/de1c/materials/stim_files/12.png,1,no,1,1393,1,58,4
504,2,3,./static/experiments/de1c/materials/stim_files/1.png,./static/experiments/de1c/materials/stim_files/5.png,1,no,1,1298,1,58,4
505,0,0,./static/experiments/de1c/materials/stim_files/3.png,./static/experiments/de1c/materials/stim_files/11.png,0,no,0,5800,1,91,1
506,1,0,./static/experiments/de1c/materials/stim_files/3.png,./static/experiments/de1c/materials/stim_files/3.png,1,yes,0,4212,1,91,1
507,2,0,./static/experiments/de1c/materials/stim_files/7.png,./static/experiments/de1c/materials/stim_files/7.png,1,no,1,2943,1,91,1
508,3,0,./static/experiments/de1c/materials/stim_files/1.png,./static/experiments/de1c/materials/stim_files/9.png,0,yes,1,1744,1,91,1
509,4,0,./static/experiments/de1c/materials/stim_files/12.png,./static/experiments/de1c/materials/stim_files/4.png,0,yes,1,2173,1,91,1
510,5,0,./static/experiments/de1c/materials/stim_files/1.png,./static/experiments/de1c/materials/stim_files/9.png,0,yes,1,2103,1,91,1
511,6,0,./static/experiments/de1c/materials/stim_files/10.png,./static/experiments/de1c/materials/stim_files/2.png,0,yes,1,1357,1,91,1
512,7,0,./static/experiments/de1c/materials/stim_files/4.png,./static/experiments/de1c/materials/stim_files/12.png,0,yes,1,1246,1,91,1
513,8,0,./static/experiments/de1c/materials/stim_files/5.png,./static/experiments/de1c/materials/stim_files/5.png,1,no,1,1973,1,91,1
514,9,0,./static/experiments/de1c/materials/stim_files/11.png,./static/experiments/de1c/materials/stim_files/3.png,0,yes,1,1146,1,91,1
515,10,0,./static/experiments/de1c/materials/stim_files/4.png,./static/experiments/de1c/materials/stim_files/4.png,1,no,1,1698,1,91,1
516,11,0,./static/experiments/de1c/materials/stim_files/2.png,./static/experiments/de1c/materials/stim_files/10.png,0,yes,1,1655,1,91,1
517,12,0,./static/experiments/de1c/materials/stim_files/2.png,./static/experiments/de1c/materials/stim_files/2.png,1,no,1,1920,1,91,1
518,13,0,./static/experiments/de1c/materials/stim_files/6.png,./static/experiments/de1c/materials/stim_files/6.png,1,no,1,1342,1,91,1
519,14,0,./static/experiments/de1c/materials/stim_files/8.png,./static/experiments/de1c/materials/stim_files/8.png,1,no,1,1430,1,91,1
520,15,0,./static/experiments/de1c/materials/stim_files/1.png,./static/experiments/de1c/materials/stim_files/1.png,1,no,1,736,1,91,1
521,0,1,./static/experiments/de1c/materials/stim_files/7.png,./static/experiments/de1c/materials/stim_files/7.png,1,no,1,751,1,91,1
522,1,1,./static/experiments/de1c/materials/stim_files/1.png,./static/experiments/de1c/materials/stim_files/1.png,1,no,1,850,1,91,1
523,2,1,./static/experiments/de1c/materials/stim_files/12.png,./static/experiments/de1c/materials/stim_files/4.png,0,yes,1,1281,1,91,1
524,3,1,./static/experiments/de1c/materials/stim_files/9.png,./static/experiments/de1c/materials/stim_files/1.png,0,no,0,1142,1,91,1
525,4,1,./static/experiments/de1c/materials/stim_files/2.png,./static/experiments/de1c/materials/stim_files/2.png,1,no,1,969,1,91,1
526,5,1,./static/experiments/de1c/materials/stim_files/11.png,./static/experiments/de1c/materials/stim_files/3.png,0,no,0,900,1,91,1
527,6,1,./static/experiments/de1c/materials/stim_files/10.png,./static/experiments/de1c/materials/stim_files/2.png,0,yes,1,994,1,91,1
528,7,1,./static/experiments/de1c/materials/stim_files/5.png,./static/experiments/de1c/materials/stim_files/5.png,1,no,1,827,1,91,1
529,8,1,./static/experiments/de1c/materials/stim_files/4.png,./static/experiments/de1c/materials/stim_files/4.png,1,no,1,1645,1,91,1
530,9,1,./static/experiments/de1c/materials/stim_files/6.png,./static/experiments/de1c/materials/stim_files/6.png,1,no,1,955,1,91,1
531,10,1,./static/experiments/de1c/materials/stim_files/4.png,./static/experiments/de1c/materials/stim_files/12.png,0,yes,1,890,1,91,1
532,11,1,./static/experiments/de1c/materials/stim_files/1.png,./static/experiments/de1c/materials/stim_files/9.png,0,yes,1,1437,1,91,1
533,12,1,./static/experiments/de1c/materials/stim_files/3.png,./static/experiments/de1c/materials/stim_files/3.png,1,no,1,781,1,91,1
534,13,1,./static/experiments/de1c/materials/stim_files/3.png,./static/experiments/de1c/materials/stim_files/11.png,0,yes,1,737,1,91,1
535,14,1,./static/experiments/de1c/materials/stim_files/2.png,./static/experiments/de1c/materials/stim_files/10.png,0,yes,1,1227,1,91,1
536,15,1,./static/experiments/de1c/materials/stim_files/8.png,./static/experiments/de1c/materials/stim_files/8.png,1,no,1,950,1,91,1
537,0,2,./static/experiments/de1c/materials/stim_files/2.png,./static/experiments/de1c/materials/stim_files/2.png,1,no,1,765,1,91,1
538,1,2,./static/experiments/de1c/materials/stim_files/6.png,./static/experiments/de1c/materials/stim_files/6.png,1,no,1,1922,1,91,1
539,2,2,./static/experiments/de1c/materials/stim_files/3.png,./static/experiments/de1c/materials/stim_files/11.png,0,yes,1,918,1,91,1
540,3,2,./static/experiments/de1c/materials/stim_files/10.png,./static/experiments/de1c/materials/stim_files/2.png,0,yes,1,720,1,91,1
541,4,2,./static/experiments/de1c/materials/stim_files/3.png,./static/experiments/de1c/materials/stim_files/11.png,0,yes,1,696,1,91,1
542,5,2,./static/experiments/de1c/materials/stim_files/1.png,./static/experiments/de1c/materials/stim_files/9.png,0,yes,1,1013,1,91,1
543,6,2,./static/experiments/de1c/materials/stim_files/1.png,./static/experiments/de1c/materials/stim_files/9.png,0,yes,1,616,1,91,1
544,7,2,./static/experiments/de1c/materials/stim_files/5.png,./static/experiments/de1c/materials/stim_files/5.png,1,no,1,910,1,91,1
545,0,0,./static/experiments/de1c/materials/stim_files/6.png,./static/experiments/de1c/materials/stim_files/10.png,1,yes,0,5468,1,128,4
546,1,0,./static/experiments/de1c/materials/stim_files/12.png,./static/experiments/de1c/materials/stim_files/4.png,0,yes,1,1456,1,128,4
547,2,0,./static/experiments/de1c/materials/stim_files/12.png,./static/experiments/de1c/materials/stim_files/4.png,0,yes,1,546,1,128,4
548,3,0,./static/experiments/de1c/materials/stim_files/2.png,./static/experiments/de1c/materials/stim_files/10.png,0,yes,1,1082,1,128,4
549,4,0,./static/experiments/de1c/materials/stim_files/4.png,./static/experiments/de1c/materials/stim_files/8.png,1,no,1,1301,1,128,4
550,5,0,./static/experiments/de1c/materials/stim_files/7.png,./static/experiments/de1c/materials/stim_files/11.png,1,yes,0,1685,1,128,4
551,6,0,./static/experiments/de1c/materials/stim_files/1.png,./static/experiments/de1c/materials/stim_files/9.png,0,yes,1,1328,1,128,4
552,7,0,./static/experiments/de1c/materials/stim_files/12.png,./static/experiments/de1c/materials/stim_files/8.png,1,no,1,877,1,128,4
553,8,0,./static/experiments/de1c/materials/stim_files/3.png,./static/experiments/de1c/materials/stim_files/11.png,0,yes,1,830,1,128,4
554,9,0,./static/experiments/de1c/materials/stim_files/1.png,./static/experiments/de1c/materials/stim_files/9.png,0,yes,1,634,1,128,4
555,10,0,./static/experiments/de1c/materials/stim_files/2.png,./static/experiments/de1c/materials/stim_files/10.png,0,yes,1,439,1,128,4
556,11,0,./static/experiments/de1c/materials/stim_files/5.png,./static/experiments/de1c/materials/stim_files/9.png,1,no,1,1876,1,128,4
557,12,0,./static/experiments/de1c/materials/stim_files/7.png,./static/experiments/de1c/materials/stim_files/3.png,1,yes,0,1384,1,128,4
558,13,0,./static/experiments/de1c/materials/stim_files/2.png,./static/experiments/de1c/materials/stim_files/6.png,1,no,1,1141,1,128,4
559,14,0,./static/experiments/de1c/materials/stim_files/3.png,./static/experiments/de1c/materials/stim_files/11.png,0,yes,1,712,1,128,4
560,15,0,./static/experiments/de1c/materials/stim_files/1.png,./static/experiments/de1c/materials/stim_files/5.png,1,no,1,910,1,128,4
561,0,1,./static/experiments/de1c/materials/stim_files/5.png,./static/experiments/de1c/materials/stim_files/9.png,1,no,1,1120,1,128,4
562,1,1,./static/experiments/de1c/materials/stim_files/9.png,./static/experiments/de1c/materials/stim_files/1.png,0,yes,1,965,1,128,4
563,2,1,./static/experiments/de1c/materials/stim_files/4.png,./static/experiments/de1c/materials/stim_files/12.png,0,yes,1,837,1,128,4
564,3,1,./static/experiments/de1c/materials/stim_files/10.png,./static/experiments/de1c/materials/stim_files/6.png,1,no,1,795,1,128,4
565,4,1,./static/experiments/de1c/materials/stim_files/8.png,./static/experiments/de1c/materials/stim_files/4.png,1,no,1,1038,1,128,4
566,5,1,./static/experiments/de1c/materials/stim_files/2.png,./static/experiments/de1c/materials/stim_files/6.png,1,no,1,484,1,128,4
567,6,1,./static/experiments/de1c/materials/stim_files/4.png,./static/experiments/de1c/materials/stim_files/12.png,0,yes,1,717,1,128,4
568,7,1,./static/experiments/de1c/materials/stim_files/8.png,./static/experiments/de1c/materials/stim_files/12.png,1,no,1,677,1,128,4
569,8,1,./static/experiments/de1c/materials/stim_files/3.png,./static/experiments/de1c/materials/stim_files/11.png,0,yes,1,928,1,128,4
570,9,1,./static/experiments/de1c/materials/stim_files/9.png,./static/experiments/de1c/materials/stim_files/1.png,0,yes,1,602,1,128,4
571,0,0,./static/experiments/de1c/materials/stim_files/3.png,./static/experiments/de1c/materials/stim_files/4.png,1,yes,0,11641,1,126,2
572,1,0,./static/experiments/de1c/materials/stim_files/2.png,./static/experiments/de1c/materials/stim_files/3.png,1,no,1,2791,1,126,2
573,2,0,./static/experiments/de1c/materials/stim_files/9.png,./static/experiments/de1c/materials/stim_files/1.png,0,no,0,1561,1,126,2
574,3,0,./static/experiments/de1c/materials/stim_files/10.png,./static/experiments/de1c/materials/stim_files/2.png,0,yes,1,2991,1,126,2
575,4,0,./static/experiments/de1c/materials/stim_files/3.png,./static/experiments/de1c/materials/stim_files/11.png,0,no,0,6076,1,126,2
576,5,0,./static/experiments/de1c/materials/stim_files/6.png,./static/experiments/de1c/materials/stim_files/7.png,1,yes,0,4245,1,126,2
577,6,0,./static/experiments/de1c/materials/stim_files/4.png,./static/experiments/de1c/materials/stim_files/12.png,0,no,0,2109,1,126,2
578,7,0,./static/experiments/de1c/materials/stim_files/11.png,./static/experiments/de1c/materials/stim_files/3.png,0,yes,1,4273,1,126,2
579,8,0,./static/experiments/de1c/materials/stim_files/4.png,./static/experiments/de1c/materials/stim_files/12.png,0,no,0,2464,1,126,2
580,9,0,./static/experiments/de1c/materials/stim_files/1.png,./static/experiments/de1c/materials/stim_files/2.png,1,no,1,4072,1,126,2
581,10,0,./static/experiments/de1c/materials/stim_files/5.png,./static/experiments/de1c/materials/stim_files/6.png,1,no,1,1669,1,126,2
582,11,0,./static/experiments/de1c/materials/stim_files/2.png,./static/experiments/de1c/materials/stim_files/10.png,0,yes,1,1201,1,126,2
583,12,0,./static/experiments/de1c/materials/stim_files/9.png,./static/experiments/de1c/materials/stim_files/1.png,0,yes,1,1620,1,126,2
584,13,0,./static/experiments/de1c/materials/stim_files/4.png,./static/experiments/de1c/materials/stim_files/5.png,1,no,1,1195,1,126,2
585,14,0,./static/experiments/de1c/materials/stim_files/7.png,./static/experiments/de1c/materials/stim_files/8.png,1,no,1,1347,1,126,2
586,0,1,./static/experiments/de1c/materials/stim_files/9.png,./static/experiments/de1c/materials/stim_files/1.png,0,yes,1,1145,1,126,2
587,1,1,./static/experiments/de1c/materials/stim_files/3.png,./static/experiments/de1c/materials/stim_files/11.png,0,yes,1,1160,1,126,2
588,2,1,./static/experiments/de1c/materials/stim_files/5.png,./static/experiments/de1c/materials/stim_files/6.png,1,no,1,1106,1,126,2
589,3,1,./static/experiments/de1c/materials/stim_files/3.png,./static/experiments/de1c/materials/stim_files/11.png,0,yes,1,882,1,126,2
590,4,1,./static/experiments/de1c/materials/stim_files/4.png,./static/experiments/de1c/materials/stim_files/3.png,1,no,1,889,1,126,2
591,5,1,./static/experiments/de1c/materials/stim_files/7.png,./static/experiments/de1c/materials/stim_files/6.png,1,no,1,1124,1,126,2
592,6,1,./static/experiments/de1c/materials/stim_files/5.png,./static/experiments/de1c/materials/stim_files/4.png,1,no,1,881,1,126,2
593,7,1,./static/experiments/de1c/materials/stim_files/1.png,./static/experiments/de1c/materials/stim_files/9.png,0,yes,1,855,1,126,2
594,8,1,./static/experiments/de1c/materials/stim_files/10.png,./static/experiments/de1c/materials/stim_files/2.png,0,yes,1,741,1,126,2
595,9,1,./static/experiments/de1c/materials/stim_files/3.png,./static/experiments/de1c/materials/stim_files/2.png,1,no,1,805,1,126,2
596,10,1,./static/experiments/de1c/materials/stim_files/2.png,./static/experiments/de1c/materials/stim_files/10.png,0,yes,1,812,1,126,2
597,11,1,./static/experiments/de1c/materials/stim_files/12.png,./static/experiments/de1c/materials/stim_files/4.png,0,yes,1,718,1,126,2
598,0,0,./static/experiments/de1c/materials/stim_files/8.png,./static/experiments/de1c/materials/stim_files/7.png,1,yes,0,9038,1,104,2
599,1,0,./static/experiments/de1c/materials/stim_files/1.png,./static/experiments/de1c/materials/stim_files/2.png,1,no,1,2663,1,104,2
600,2,0,./static/experiments/de1c/materials/stim_files/3.png,./static/experiments/de1c/materials/stim_files/11.png,0,no,0,1040,1,104,2
601,3,0,./static/experiments/de1c/materials/stim_files/1.png,./static/experiments/de1c/materials/stim_files/9.png,0,yes,1,1076,1,104,2
602,4,0,./static/experiments/de1c/materials/stim_files/10.png,./static/experiments/de1c/materials/stim_files/2.png,0,yes,1,895,1,104,2
603,5,0,./static/experiments/de1c/materials/stim_files/4.png,./static/experiments/de1c/materials/stim_files/5.png,1,no,1,1137,1,104,2
604,6,0,./static/experiments/de1c/materials/stim_files/10.png,./static/experiments/de1c/materials/stim_files/2.png,0,yes,1,816,1,104,2
605,7,0,./static/experiments/de1c/materials/stim_files/6.png,./static/experiments/de1c/materials/stim_files/7.png,1,no,1,971,1,104,2
606,8,0,./static/experiments/de1c/materials/stim_files/4.png,./static/experiments/de1c/materials/stim_files/12.png,0,yes,1,1018,1,104,2
607,9,0,./static/experiments/de1c/materials/stim_files/9.png,./static/experiments/de1c/materials/stim_files/1.png,0,no,0,1809,1,104,2
608,10,0,./static/experiments/de1c/materials/stim_files/6.png,./static/experiments/de1c/materials/stim_files/5.png,1,no,1,890,1,104,2
609,11,0,./static/experiments/de1c/materials/stim_files/3.png,./static/experiments/de1c/materials/stim_files/11.png,0,yes,1,995,1,104,2
610,12,0,./static/experiments/de1c/materials/stim_files/2.png,./static/experiments/de1c/materials/stim_files/3.png,1,no,1,826,1,104,2
611,13,0,./static/experiments/de1c/materials/stim_files/4.png,./static/experiments/de1c/materials/stim_files/12.png,0,yes,1,640,1,104,2
612,14,0,./static/experiments/de1c/materials/stim_files/4.png,./static/experiments/de1c/materials/stim_files/3.png,1,no,1,868,1,104,2
613,0,1,./static/experiments/de1c/materials/stim_files/12.png,./static/experiments/de1c/materials/stim_files/4.png,0,yes,1,615,1,104,2
614,1,1,./static/experiments/de1c/materials/stim_files/1.png,./static/experiments/de1c/materials/stim_files/2.png,1,no,1,667,1,104,2
615,2,1,./static/experiments/de1c/materials/stim_files/4.png,./static/experiments/de1c/materials/stim_files/5.png,1,no,1,1057,1,104,2
616,3,1,./static/experiments/de1c/materials/stim_files/12.png,./static/experiments/de1c/materials/stim_files/4.png,0,yes,1,589,1,104,2
617,4,1,./static/experiments/de1c/materials/stim_files/5.png,./static/experiments/de1c/materials/stim_files/6.png,1,no,1,557,1,104,2
618,5,1,./static/experiments/de1c/materials/stim_files/11.png,./static/experiments/de1c/materials/stim_files/3.png,0,yes,1,571,1,104,2
619,6,1,./static/experiments/de1c/materials/stim_files/4.png,./static/experiments/de1c/materials/stim_files/3.png,1,no,1,487,1,104,2
620,7,1,./static/experiments/de1c/materials/stim_files/10.png,./static/experiments/de1c/materials/stim_files/2.png,0,yes,1,571,1,104,2
621,0,0,./static/experiments/de1c/materials/stim_files/7.png,./static/experiments/de1c/materials/stim_files/3.png,1,no,1,13508,1,19,4
622,1,0,./static/experiments/de1c/materials/stim_files/12.png,./static/experiments/de1c/materials/stim_files/8.png,1,no,1,4316,1,19,4
623,2,0,./static/experiments/de1c/materials/stim_files/7.png,./static/experiments/de1c/materials/stim_files/11.png,1,yes,0,1884,1,19,4
624,3,0,./static/experiments/de1c/materials/stim_files/2.png,./static/experiments/de1c/materials/stim_files/10.png,0,no,0,9647,1,19,4
625,4,0,./static/experiments/de1c/materials/stim_files/2.png,./static/experiments/de1c/materials/stim_files/6.png,1,yes,0,19830,1,19,4
626,5,0,./static/experiments/de1c/materials/stim_files/5.png,./static/experiments/de1c/materials/stim_files/9.png,1,yes,0,7085,1,19,4
627,6,0,./static/experiments/de1c/materials/stim_files/11.png,./static/experiments/de1c/materials/stim_files/3.png,0,no,0,3938,1,19,4
628,7,0,./static/experiments/de1c/materials/stim_files/6.png,./static/experiments/de1c/materials/stim_files/10.png,1,no,1,5667,1,19,4
629,8,0,./static/experiments/de1c/materials/stim_files/4.png,./static/experiments/de1c/materials/stim_files/8.png,1,no,1,3464,1,19,4
630,9,0,./static/experiments/de1c/materials/stim_files/12.png,./static/experiments/de1c/materials/stim_files/4.png,0,no,0,2495,1,19,4
631,10,0,./static/experiments/de1c/materials/stim_files/3.png,./static/experiments/de1c/materials/stim_files/11.png,0,yes,1,1069,1,19,4
632,11,0,./static/experiments/de1c/materials/stim_files/4.png,./static/experiments/de1c/materials/stim_files/12.png,0,no,0,3172,1,19,4
633,12,0,./static/experiments/de1c/materials/stim_files/1.png,./static/experiments/de1c/materials/stim_files/5.png,1,yes,0,1946,1,19,4
634,13,0,./static/experiments/de1c/materials/stim_files/1.png,./static/experiments/de1c/materials/stim_files/9.png,0,no,0,3678,1,19,4
635,14,0,./static/experiments/de1c/materials/stim_files/2.png,./static/experiments/de1c/materials/stim_files/10.png,0,no,0,3130,1,19,4
636,15,0,./static/experiments/de1c/materials/stim_files/9.png,./static/experiments/de1c/materials/stim_files/1.png,0,yes,1,2179,1,19,4
637,0,1,./static/experiments/de1c/materials/stim_files/4.png,./static/experiments/de1c/materials/stim_files/12.png,0,yes,1,1686,1,19,4
638,1,1,./static/experiments/de1c/materials/stim_files/7.png,./static/experiments/de1c/materials/stim_files/11.png,1,yes,0,1791,1,19,4
639,2,1,./static/experiments/de1c/materials/stim_files/2.png,./static/experiments/de1c/materials/stim_files/10.png,0,no,0,1870,1,19,4
640,3,1,./static/experiments/de1c/materials/stim_files/9.png,./static/experiments/de1c/materials/stim_files/1.png,0,no,0,4031,1,19,4
641,4,1,./static/experiments/de1c/materials/stim_files/6.png,./static/experiments/de1c/materials/stim_files/10.png,1,yes,0,821,1,19,4
642,5,1,./static/experiments/de1c/materials/stim_files/6.png,./static/experiments/de1c/materials/stim_files/2.png,1,yes,0,6333,1,19,4
643,6,1,./static/experiments/de1c/materials/stim_files/3.png,./static/experiments/de1c/materials/stim_files/11.png,0,yes,1,3314,1,19,4
644,7,1,./static/experiments/de1c/materials/stim_files/1.png,./static/experiments/de1c/materials/stim_files/9.png,0,yes,1,2874,1,19,4
645,8,1,./static/experiments/de1c/materials/stim_files/12.png,./static/experiments/de1c/materials/stim_files/4.png,0,no,0,2521,1,19,4
646,9,1,./static/experiments/de1c/materials/stim_files/5.png,./static/experiments/de1c/materials/stim_files/9.png,1,yes,0,2829,1,19,4
647,10,1,./static/experiments/de1c/materials/stim_files/11.png,./static/experiments/de1c/materials/stim_files/3.png,0,yes,1,3709,1,19,4
648,11,1,./static/experiments/de1c/materials/stim_files/8.png,./static/experiments/de1c/materials/stim_files/4.png,1,yes,0,2263,1,19,4
649,12,1,./static/experiments/de1c/materials/stim_files/3.png,./static/experiments/de1c/materials/stim_files/7.png,1,yes,0,2160,1,19,4
650,13,1,./static/experiments/de1c/materials/stim_files/5.png,./static/experiments/de1c/materials/stim_files/1.png,1,no,1,2431,1,19,4
651,14,1,./static/experiments/de1c/materials/stim_files/12.png,./static/experiments/de1c/materials/stim_files/8.png,1,yes,0,2478,1,19,4
652,15,1,./static/experiments/de1c/materials/stim_files/2.png,./static/experiments/de1c/materials/stim_files/10.png,0,yes,1,2318,1,19,4
653,0,2,./static/experiments/de1c/materials/stim_files/6.png,./static/experiments/de1c/materials/stim_files/10.png,1,yes,0,2611,1,19,4
654,1,2,./static/experiments/de1c/materials/stim_files/2.png,./static/experiments/de1c/materials/stim_files/10.png,0,no,0,1588,1,19,4
655,2,2,./static/experiments/de1c/materials/stim_files/3.png,./static/experiments/de1c/materials/stim_files/7.png,1,no,1,2731,1,19,4
656,3,2,./static/experiments/de1c/materials/stim_files/1.png,./static/experiments/de1c/materials/stim_files/9.png,0,yes,1,1998,1,19,4
657,4,2,./static/experiments/de1c/materials/stim_files/5.png,./static/experiments/de1c/materials/stim_files/1.png,1,no,1,2772,1,19,4
658,5,2,./static/experiments/de1c/materials/stim_files/12.png,./static/experiments/de1c/materials/stim_files/4.png,0,yes,1,2087,1,19,4
659,6,2,./static/experiments/de1c/materials/stim_files/11.png,./static/experiments/de1c/materials/stim_files/3.png,0,yes,1,1022,1,19,4
660,7,2,./static/experiments/de1c/materials/stim_files/11.png,./static/experiments/de1c/materials/stim_files/3.png,0,yes,1,4927,1,19,4
661,8,2,./static/experiments/de1c/materials/stim_files/4.png,./static/experiments/de1c/materials/stim_files/8.png,1,yes,0,1952,1,19,4
662,9,2,./static/experiments/de1c/materials/stim_files/5.png,./static/experiments/de1c/materials/stim_files/9.png,1,no,1,1095,1,19,4
663,10,2,./static/experiments/de1c/materials/stim_files/8.png,./static/experiments/de1c/materials/stim_files/12.png,1,no,1,1363,1,19,4
664,11,2,./static/experiments/de1c/materials/stim_files/11.png,./static/experiments/de1c/materials/stim_files/7.png,1,no,1,1090,1,19,4
665,12,2,./static/experiments/de1c/materials/stim_files/1.png,./static/experiments/de1c/materials/stim_files/9.png,0,no,0,5972,1,19,4
666,13,2,./static/experiments/de1c/materials/stim_files/12.png,./static/experiments/de1c/materials/stim_files/4.png,0,yes,1,1411,1,19,4
667,14,2,./static/experiments/de1c/materials/stim_files/2.png,./static/experiments/de1c/materials/stim_files/6.png,1,no,1,3032,1,19,4
668,15,2,./static/experiments/de1c/materials/stim_files/2.png,./static/experiments/de1c/materials/stim_files/10.png,0,yes,1,1233,1,19,4
669,0,3,./static/experiments/de1c/materials/stim_files/11.png,./static/experiments/de1c/materials/stim_files/3.png,0,yes,1,1046,1,19,4
670,1,3,./static/experiments/de1c/materials/stim_files/4.png,./static/experiments/de1c/materials/stim_files/12.png,0,yes,1,932,1,19,4
671,2,3,./static/experiments/de1c/materials/stim_files/3.png,./static/experiments/de1c/materials/stim_files/7.png,1,no,1,2027,1,19,4
672,3,3,./static/experiments/de1c/materials/stim_files/6.png,./static/experiments/de1c/materials/stim_files/10.png,1,no,1,1528,1,19,4
673,4,3,./static/experiments/de1c/materials/stim_files/11.png,./static/experiments/de1c/materials/stim_files/3.png,0,yes,1,870,1,19,4
674,5,3,./static/experiments/de1c/materials/stim_files/5.png,./static/experiments/de1c/materials/stim_files/9.png,1,no,1,1100,1,19,4
675,6,3,./static/experiments/de1c/materials/stim_files/9.png,./static/experiments/de1c/materials/stim_files/1.png,0,yes,1,1270,1,19,4
676,7,3,./static/experiments/de1c/materials/stim_files/11.png,./static/experiments/de1c/materials/stim_files/7.png,1,no,1,917,1,19,4
677,8,3,./static/experiments/de1c/materials/stim_files/2.png,./static/experiments/de1c/materials/stim_files/10.png,0,yes,1,2268,1,19,4
678,9,3,./static/experiments/de1c/materials/stim_files/6.png,./static/experiments/de1c/materials/stim_files/2.png,1,yes,0,1248,1,19,4
679,10,3,./static/experiments/de1c/materials/stim_files/8.png,./static/experiments/de1c/materials/stim_files/4.png,1,no,1,1033,1,19,4
680,11,3,./static/experiments/de1c/materials/stim_files/9.png,./static/experiments/de1c/materials/stim_files/1.png,0,yes,1,1216,1,19,4
681,12,3,./static/experiments/de1c/materials/stim_files/12.png,./static/experiments/de1c/materials/stim_files/4.png,0,yes,1,897,1,19,4
682,13,3,./static/experiments/de1c/materials/stim_files/2.png,./static/experiments/de1c/materials/stim_files/10.png,0,yes,1,835,1,19,4
683,14,3,./static/experiments/de1c/materials/stim_files/5.png,./static/experiments/de1c/materials/stim_files/1.png,1,no,1,4467,1,19,4
684,15,3,./static/experiments/de1c/materials/stim_files/12.png,./static/experiments/de1c/materials/stim_files/8.png,1,no,1,1151,1,19,4
685,0,0,./static/experiments/de1c/materials/stim_files/4.png,./static/experiments/de1c/materials/stim_files/3.png,1,yes,0,4573,1,74,2
686,1,0,./static/experiments/de1c/materials/stim_files/5.png,./static/experiments/de1c/materials/stim_files/4.png,1,yes,0,2984,1,74,2
687,2,0,./static/experiments/de1c/materials/stim_files/7.png,./static/experiments/de1c/materials/stim_files/8.png,1,no,1,3217,1,74,2
688,3,0,./static/experiments/de1c/materials/stim_files/10.png,./static/experiments/de1c/materials/stim_files/2.png,0,no,0,1280,1,74,2
689,4,0,./static/experiments/de1c/materials/stim_files/9.png,./static/experiments/de1c/materials/stim_files/1.png,0,no,0,2935,1,74,2
690,5,0,./static/experiments/de1c/materials/stim_files/12.png,./static/experiments/de1c/materials/stim_files/4.png,0,no,0,1634,1,74,2
691,6,0,./static/experiments/de1c/materials/stim_files/2.png,./static/experiments/de1c/materials/stim_files/10.png,0,yes,1,1183,1,74,2
692,7,0,./static/experiments/de1c/materials/stim_files/1.png,./static/experiments/de1c/materials/stim_files/2.png,1,no,1,1374,1,74,2
693,8,0,./static/experiments/de1c/materials/stim_files/2.png,./static/experiments/de1c/materials/stim_files/3.png,1,yes,0,2068,1,74,2
694,9,0,./static/experiments/de1c/materials/stim_files/3.png,./static/experiments/de1c/materials/stim_files/11.png,0,no,0,639,1,74,2
695,10,0,./static/experiments/de1c/materials/stim_files/3.png,./static/experiments/de1c/materials/stim_files/11.png,0,yes,1,1748,1,74,2
696,11,0,./static/experiments/de1c/materials/stim_files/5.png,./static/experiments/de1c/materials/stim_files/6.png,1,no,1,1794,1,74,2
697,12,0,./static/experiments/de1c/materials/stim_files/9.png,./static/experiments/de1c/materials/stim_files/1.png,0,no,0,2115,1,74,2
698,13,0,./static/experiments/de1c/materials/stim_files/12.png,./static/experiments/de1c/materials/stim_files/4.png,0,yes,1,1957,1,74,2
699,14,0,./static/experiments/de1c/materials/stim_files/7.png,./static/experiments/de1c/materials/stim_files/6.png,1,no,1,1479,1,74,2
700,0,1,./static/experiments/de1c/materials/stim_files/7.png,./static/experiments/de1c/materials/stim_files/6.png,1,no,1,1757,1,74,2
701,1,1,./static/experiments/de1c/materials/stim_files/3.png,./static/experiments/de1c/materials/stim_files/11.png,0,yes,1,1511,1,74,2
702,2,1,./static/experiments/de1c/materials/stim_files/12.png,./static/experiments/de1c/materials/stim_files/4.png,0,yes,1,1207,1,74,2
703,3,1,./static/experiments/de1c/materials/stim_files/2.png,./static/experiments/de1c/materials/stim_files/10.png,0,yes,1,1447,1,74,2
704,4,1,./static/experiments/de1c/materials/stim_files/2.png,./static/experiments/de1c/materials/stim_files/10.png,0,yes,1,649,1,74,2
705,5,1,./static/experiments/de1c/materials/stim_files/6.png,./static/experiments/de1c/materials/stim_files/5.png,1,no,1,701,1,74,2
706,6,1,./static/experiments/de1c/materials/stim_files/4.png,./static/experiments/de1c/materials/stim_files/12.png,0,yes,1,1064,1,74,2
707,7,1,./static/experiments/de1c/materials/stim_files/1.png,./static/experiments/de1c/materials/stim_files/9.png,0,yes,1,1013,1,74,2
708,8,1,./static/experiments/de1c/materials/stim_files/4.png,./static/experiments/de1c/materials/stim_files/5.png,1,no,1,878,1,74,2
709,9,1,./static/experiments/de1c/materials/stim_files/11.png,./static/experiments/de1c/materials/stim_files/3.png,0,yes,1,728,1,74,2
710,10,1,./static/experiments/de1c/materials/stim_files/4.png,./static/experiments/de1c/materials/stim_files/3.png,1,no,1,578,1,74,2
711,11,1,./static/experiments/de1c/materials/stim_files/2.png,./static/experiments/de1c/materials/stim_files/3.png,1,no,1,1108,1,74,2
712,12,1,./static/experiments/de1c/materials/stim_files/2.png,./static/experiments/de1c/materials/stim_files/1.png,1,yes,0,1618,1,74,2
713,13,1,./static/experiments/de1c/materials/stim_files/8.png,./static/experiments/de1c/materials/stim_files/7.png,1,no,1,1125,1,74,2
714,14,1,./static/experiments/de1c/materials/stim_files/1.png,./static/experiments/de1c/materials/stim_files/9.png,0,yes,1,1179,1,74,2
715,0,2,./static/experiments/de1c/materials/stim_files/6.png,./static/experiments/de1c/materials/stim_files/5.png,1,no,1,1109,1,74,2
716,1,2,./static/experiments/de1c/materials/stim_files/11.png,./static/experiments/de1c/materials/stim_files/3.png,0,yes,1,1557,1,74,2
717,2,2,./static/experiments/de1c/materials/stim_files/10.png,./static/experiments/de1c/materials/stim_files/2.png,0,yes,1,750,1,74,2
718,0,0,./static/experiments/de1c/materials/stim_files/7.png,./static/experiments/de1c/materials/stim_files/11.png,1,no,1,7835,1,66,4
719,1,0,./static/experiments/de1c/materials/stim_files/4.png,./static/experiments/de1c/materials/stim_files/8.png,1,no,1,7171,1,66,4
720,2,0,./static/experiments/de1c/materials/stim_files/6.png,./static/experiments/de1c/materials/stim_files/2.png,1,no,1,4160,1,66,4
721,3,0,./static/experiments/de1c/materials/stim_files/12.png,./static/experiments/de1c/materials/stim_files/4.png,0,no,0,1307,1,66,4
722,4,0,./static/experiments/de1c/materials/stim_files/9.png,./static/experiments/de1c/materials/stim_files/1.png,0,yes,1,4755,1,66,4
723,5,0,./static/experiments/de1c/materials/stim_files/3.png,./static/experiments/de1c/materials/stim_files/11.png,0,yes,1,6569,1,66,4
724,6,0,./static/experiments/de1c/materials/stim_files/9.png,./static/experiments/de1c/materials/stim_files/5.png,1,yes,0,2553,1,66,4
725,7,0,./static/experiments/de1c/materials/stim_files/3.png,./static/experiments/de1c/materials/stim_files/7.png,1,no,1,3587,1,66,4
726,8,0,./static/experiments/de1c/materials/stim_files/12.png,./static/experiments/de1c/materials/stim_files/8.png,1,yes,0,2592,1,66,4
727,9,0,./static/experiments/de1c/materials/stim_files/4.png,./static/experiments/de1c/materials/stim_files/12.png,0,yes,1,605,1,66,4
728,10,0,./static/experiments/de1c/materials/stim_files/9.png,./static/experiments/de1c/materials/stim_files/1.png,0,no,0,1539,1,66,4
729,11,0,./static/experiments/de1c/materials/stim_files/2.png,./static/experiments/de1c/materials/stim_files/10.png,0,yes,1,935,1,66,4
730,12,0,./static/experiments/de1c/materials/stim_files/1.png,./static/experiments/de1c/materials/stim_files/5.png,1,yes,0,950,1,66,4
731,13,0,./static/experiments/de1c/materials/stim_files/10.png,./static/experiments/de1c/materials/stim_files/6.png,1,yes,0,625,1,66,4
732,14,0,./static/experiments/de1c/materials/stim_files/2.png,./static/experiments/de1c/materials/stim_files/10.png,0,yes,1,403,1,66,4
733,15,0,./static/experiments/de1c/materials/stim_files/3.png,./static/experiments/de1c/materials/stim_files/11.png,0,no,0,888,1,66,4
734,0,1,./static/experiments/de1c/materials/stim_files/9.png,./static/experiments/de1c/materials/stim_files/1.png,0,no,0,588,1,66,4
735,1,1,./static/experiments/de1c/materials/stim_files/5.png,./static/experiments/de1c/materials/stim_files/1.png,1,no,1,402,1,66,4
736,2,1,./static/experiments/de1c/materials/stim_files/11.png,./static/experiments/de1c/materials/stim_files/7.png,1,no,1,2341,1,66,4
737,3,1,./static/experiments/de1c/materials/stim_files/12.png,./static/experiments/de1c/materials/stim_files/8.png,1,yes,0,549,1,66,4
738,4,1,./static/experiments/de1c/materials/stim_files/4.png,./static/experiments/de1c/materials/stim_files/12.png,0,yes,1,414,1,66,4
739,5,1,./static/experiments/de1c/materials/stim_files/4.png,./static/experiments/de1c/materials/stim_files/8.png,1,no,1,2045,1,66,4
740,6,1,./static/experiments/de1c/materials/stim_files/9.png,./static/experiments/de1c/materials/stim_files/5.png,1,yes,0,753,1,66,4
741,7,1,./static/experiments/de1c/materials/stim_files/10.png,./static/experiments/de1c/materials/stim_files/6.png,1,no,1,363,1,66,4
742,8,1,./static/experiments/de1c/materials/stim_files/3.png,./static/experiments/de1c/materials/stim_files/11.png,0,yes,1,3429,1,66,4
743,9,1,./static/experiments/de1c/materials/stim_files/2.png,./static/experiments/de1c/materials/stim_files/10.png,0,no,0,729,1,66,4
