id,phase,condition,block,trial,stim_id,category,response,isCorrect,rt,_,__
id-34,classification_train,3,0,0,i-15,Versicolor,Setosa,False,1.2427231940673664,na,na
id-34,classification_train,3,0,1,i-14,Versicolor,Versicolor,True,0.7248307927511632,na,na
id-34,classification_train,3,0,2,i-0,Setosa,Versicolor,False,0.2339188546175137,na,na
id-34,classification_train,3,0,3,i-3,Setosa,Setosa,True,0.535852670785971,na,na
id-34,classification_train,3,0,4,i-12,Versicolor,Versicolor,True,1.6626432351768017,na,na
id-34,classification_train,3,0,5,i-11,Versicolor,Setosa,False,0.0001834100112318993,na,na
id-34,classification_train,3,0,6,i-2,Setosa,Versicolor,False,1.5230212582973763,na,na
id-34,classification_train,3,0,7,i-1,Setosa,Setosa,True,1.0304569754516706,na,na
id-34,classification_train,3,0,8,i-6,Setosa,Versicolor,False,0.4737713851500303,na,na
id-34,classification_train,3,0,9,i-9,Versicolor,Setosa,False,0.10998869081959127,na,na
id-34,classification_train,3,0,10,i-5,Setosa,Versicolor,False,4.210734381340444,na,na
id-34,classification_train,3,0,11,i-8,Versicolor,Versicolor,True,2.1745648813666776,na,na
id-34,classification_train,3,0,12,i-13,Versicolor,Versicolor,True,0.28440624836366624,na,na
id-34,classification_train,3,0,13,i-4,Setosa,Setosa,True,2.113711515441537,na,na
id-34,classification_train,3,0,14,i-7,Setosa,Versicolor,False,0.000247636460699141,na,na
id-34,classification_train,3,0,15,i-10,Versicolor,Setosa,False,0.5153607481624931,na,na
id-34,classification_train,3,1,16,i-9,Versicolor,Versicolor,True,0.014990617637522519,na,na
id-34,classification_train,3,1,17,i-2,Setosa,Versicolor,False,0.00024829863104969263,na,na
id-34,classification_train,3,1,18,i-8,Versicolor,Setosa,False,0.8377182875992729,na,na
id-34,classification_train,3,1,19,i-11,Versicolor,Versicolor,True,1.365262554376386,na,na
id-34,classification_train,3,1,20,i-5,Setosa,Setosa,True,1.8111917143687608,na,na
id-34,classification_train,3,1,21,i-4,Setosa,Setosa,True,0.5519053445896134,na,na
id-34,classification_train,3,1,22,i-3,Setosa,Setosa,True,0.4539084857096896,na,na
id-34,classification_train,3,1,23,i-10,Versicolor,Setosa,False,0.6786512151593342,na,na
id-34,classification_train,3,1,24,i-6,Setosa,Setosa,True,1.5086993917357177,na,na
id-34,classification_train,3,1,25,i-12,Versicolor,Versicolor,True,0.4678913418902084,na,na
id-34,classification_train,3,1,26,i-1,Setosa,Versicolor,False,0.9026718921959399,na,na
id-34,classification_train,3,1,27,i-0,Setosa,Setosa,True,0.03178388345986605,na,na
id-34,classification_train,3,1,28,i-15,Versicolor,Versicolor,True,0.5585196897154674,na,na
id-34,classification_train,3,1,29,i-7,Setosa,Versicolor,False,1.1297681619180366,na,na
id-34,classification_train,3,1,30,i-14,Versicolor,Versicolor,True,0.8177388533949852,na,na
id-34,classification_train,3,1,31,i-13,Versicolor,Versicolor,True,0.2121731893857941,na,na
id-34,classification_train,3,2,32,i-3,Setosa,Setosa,True,0.7388411272550002,na,na
id-34,classification_train,3,2,33,i-5,Setosa,Setosa,True,0.6523620154475793,na,na
id-34,classification_train,3,2,34,i-0,Setosa,Versicolor,False,0.8444534714799374,na,na
id-34,classification_train,3,2,35,i-8,Versicolor,Setosa,False,0.5921886566793546,na,na
id-34,classification_train,3,2,36,i-6,Setosa,Setosa,True,0.7875182582065463,na,na
id-34,classification_train,3,2,37,i-1,Setosa,Versicolor,False,3.5121765661751847,na,na
id-34,classification_train,3,2,38,i-11,Versicolor,Setosa,False,0.3994065993465483,na,na
id-34,classification_train,3,2,39,i-2,Setosa,Setosa,True,0.039358647889457636,na,na
id-34,classification_train,3,2,40,i-10,Versicolor,Versicolor,True,0.202755055623129,na,na
id-34,classification_train,3,2,41,i-4,Setosa,Versicolor,False,0.25823358341585845,na,na
id-34,classification_train,3,2,42,i-7,Setosa,Versicolor,False,0.7141797735821456,na,na
id-34,classification_train,3,2,43,i-15,Versicolor,Versicolor,True,0.00024962297175079584,na,na
id-34,classification_train,3,2,44,i-13,Versicolor,Versicolor,True,0.30132631200831383,na,na
id-34,classification_train,3,2,45,i-9,Versicolor,Setosa,False,0.2045143344439566,na,na
id-34,classification_train,3,2,46,i-14,Versicolor,Versicolor,True,0.52524932497181,na,na
id-34,classification_train,3,2,47,i-12,Versicolor,Versicolor,True,0.16129381477367133,na,na
id-34,classification_train,3,3,48,i-2,Setosa,Setosa,True,1.0898973565781491,na,na
id-34,classification_train,3,3,49,i-3,Setosa,Setosa,True,0.4868901619920507,na,na
id-34,classification_train,3,3,50,i-1,Setosa,Setosa,True,0.6982664781389758,na,na
id-34,classification_train,3,3,51,i-13,Versicolor,Versicolor,True,0.0002598859136924148,na,na
id-34,classification_train,3,3,52,i-5,Setosa,Setosa,True,0.4861750619020313,na,na
id-34,classification_train,3,3,53,i-7,Setosa,Versicolor,False,0.9246923413593322,na,na
id-34,classification_train,3,3,54,i-15,Versicolor,Versicolor,True,0.21979860658757389,na,na
id-34,classification_train,3,3,55,i-12,Versicolor,Setosa,False,1.0016794920666143,na,na
id-34,classification_train,3,3,56,i-0,Setosa,Setosa,True,0.3209415749879554,na,na
id-34,classification_train,3,3,57,i-10,Versicolor,Setosa,False,0.0001764575717970729,na,na
id-34,classification_train,3,3,58,i-14,Versicolor,Versicolor,True,0.00024896080140024424,na,na
id-34,classification_train,3,3,59,i-9,Versicolor,Setosa,False,0.3115525750909001,na,na
id-34,classification_train,3,3,60,i-4,Setosa,Versicolor,False,0.21040298533625898,na,na
id-34,classification_train,3,3,61,i-8,Versicolor,Setosa,False,0.2403872002614662,na,na
id-34,classification_train,3,3,62,i-11,Versicolor,Versicolor,True,0.4576015144120902,na,na
id-34,classification_train,3,3,63,i-6,Setosa,Setosa,True,0.2574903428321704,na,na
id-34,classification_train,3,4,64,i-14,Versicolor,Versicolor,True,0.19601225736550987,na,na
id-34,classification_train,3,4,65,i-2,Setosa,Setosa,True,0.22223557508550584,na,na
id-34,classification_train,3,4,66,i-8,Versicolor,Versicolor,True,0.832997964695096,na,na
id-34,classification_train,3,4,67,i-13,Versicolor,Versicolor,True,0.5006184292724356,na,na
id-34,classification_train,3,4,68,i-9,Versicolor,Versicolor,True,0.19262380828149614,na,na
id-34,classification_train,3,4,69,i-3,Setosa,Setosa,True,0.27087794430553913,na,na
id-34,classification_train,3,4,70,i-10,Versicolor,Versicolor,True,0.00024697440676391125,na,na
id-34,classification_train,3,4,71,i-7,Setosa,Setosa,True,0.3279899462359026,na,na
id-34,classification_test_gen,3,0,0,i-3,Setosa,Versicolor,gen,0.7352480801055208,na,na
id-34,classification_test_gen,3,0,1,i-13,Versicolor,Versicolor,gen,0.6119830256793648,na,na
id-34,classification_test_gen,3,0,2,i-12,Versicolor,Versicolor,gen,0.4035346473101527,na,na
id-34,classification_test_gen,3,0,3,g-0,gen,Setosa,gen,2.153784270165488,na,na
id-34,classification_test_gen,3,0,4,i-2,Setosa,Setosa,gen,0.0001751333475112915,na,na
id-34,classification_test_gen,3,0,5,g-1,gen,Setosa,gen,0.5522715023253113,na,na
id-34,classification_test_gen,3,0,6,i-9,Versicolor,Versicolor,gen,0.00024896080140024424,na,na
id-34,classification_test_gen,3,0,7,i-11,Versicolor,Versicolor,gen,1.7214195001870394,na,na
id-34,classification_test_gen,3,0,8,i-7,Setosa,Setosa,gen,0.00017215381376445293,na,na
id-34,classification_test_gen,3,0,9,i-15,Versicolor,Versicolor,gen,2.265295197255909,na,na
id-34,classification_test_gen,3,0,10,g-10,gen,Setosa,gen,0.7972330258926377,na,na
id-34,classification_test_gen,3,0,11,g-13,gen,Setosa,gen,0.26752988528460264,na,na
id-34,classification_test_gen,3,0,12,i-8,Versicolor,Versicolor,gen,0.06047628319356591,na,na
id-34,classification_test_gen,3,0,13,g-5,gen,Versicolor,gen,0.00024730549193918705,na,na
id-34,classification_test_gen,3,0,14,i-6,Setosa,Setosa,gen,2.3086166918510567,na,na
id-34,classification_test_gen,3,0,15,i-10,Versicolor,Versicolor,gen,0.24873169045895335,na,na
id-34,classification_test_gen,3,0,16,g-7,gen,Setosa,gen,1.1046327232616022,na,na
id-34,classification_test_gen,3,0,17,g-8,gen,Versicolor,gen,0.11876985558774322,na,na
id-34,classification_test_gen,3,0,18,i-5,Setosa,Setosa,gen,0.0001738090068101883,na,na
id-34,classification_test_gen,3,0,19,g-6,gen,Setosa,gen,0.00017447117716073993,na,na
id-34,classification_test_gen,3,0,20,i-4,Setosa,Versicolor,gen,0.00024631223641335964,na,na
id-34,classification_test_gen,3,0,21,g-3,gen,Versicolor,gen,0.5273909836541861,na,na
id-34,classification_test_gen,3,0,22,g-4,gen,Versicolor,gen,0.9738025051774456,na,na
id-34,classification_test_gen,3,0,23,g-12,gen,Setosa,gen,0.1924397363327444,na,na
id-34,classification_test_gen,3,0,24,i-14,Versicolor,Versicolor,gen,0.056119469460099936,na,na
id-34,classification_test_gen,3,0,25,g-11,gen,Setosa,gen,0.9232442636275664,na,na
id-34,classification_test_gen,3,0,26,g-2,gen,Setosa,gen,0.2848190863151103,na,na
id-34,classification_test_gen,3,0,27,g-9,gen,Setosa,gen,0.0979862647363916,na,na
id-34,classification_test_gen,3,0,28,i-1,Setosa,Setosa,gen,0.0001751333475112915,na,na
id-34,classification_test_gen,3,0,29,i-0,Setosa,Setosa,gen,1.6861111001344398,na,na
id-63,classification_train,2,0,0,i-5,Setosa,Versicolor,False,2.384182197507471,na,na
id-63,classification_train,2,0,1,i-11,Versicolor,Versicolor,True,1.0714135789312422,na,na
id-63,classification_train,2,0,2,i-8,Versicolor,Versicolor,True,2.8445274461992085,na,na
id-63,classification_train,2,0,3,i-6,Setosa,Setosa,True,1.1615529111586511,na,na
id-63,classification_train,2,0,4,i-3,Setosa,Setosa,True,2.0942826229147613,na,na
id-63,classification_train,2,0,5,i-9,Versicolor,Versicolor,True,1.1603782889433203,na,na
id-63,classification_train,2,0,6,i-10,Versicolor,Versicolor,True,1.0535562112927437,na,na
id-63,classification_train,2,0,7,i-1,Setosa,Setosa,True,0.5081942141987383,na,na
id-63,classification_train,2,0,8,i-14,Versicolor,Versicolor,True,0.7762954114004971,na,na
id-63,classification_train,2,0,9,i-13,Versicolor,Versicolor,True,0.587046183180064,na,na
id-63,classification_train,2,0,10,i-12,Versicolor,Versicolor,True,0.00025194138288497925,na,na
id-63,classification_train,2,0,11,i-7,Setosa,Setosa,True,0.19731863029301167,na,na
id-63,classification_train,2,0,12,i-4,Setosa,Setosa,True,0.8892773031257093,na,na
id-63,classification_train,2,0,13,i-2,Setosa,Setosa,True,0.13286803103983402,na,na
id-63,classification_train,2,0,14,i-15,Versicolor,Versicolor,True,0.3300979360938072,na,na
id-63,classification_train,2,0,15,i-0,Setosa,Setosa,True,0.3584249336272478,na,na
id-63,classification_train,2,1,16,i-11,Versicolor,Versicolor,True,1.5948129906319082,na,na
id-63,classification_train,2,1,17,i-10,Versicolor,Versicolor,True,0.20367178646847608,na,na
id-63,classification_train,2,1,18,i-7,Setosa,Setosa,True,0.6074904999695718,na,na
id-63,classification_train,2,1,19,i-13,Versicolor,Versicolor,True,0.2802566159516573,na,na
id-63,classification_train,2,1,20,i-2,Setosa,Setosa,True,0.5610704156570137,na,na
id-63,classification_train,2,1,21,i-3,Setosa,Setosa,True,0.9486351143568754,na,na
id-63,classification_train,2,1,22,i-12,Versicolor,Versicolor,True,0.031888936646282666,na,na
id-63,classification_train,2,1,23,i-4,Setosa,Setosa,True,0.10938254231587052,na,na
id-63,classification_train,2,1,24,i-14,Versicolor,Versicolor,True,0.7378513687290251,na,na
id-63,classification_train,2,1,25,i-1,Setosa,Setosa,True,0.7501137214712799,na,na
id-63,classification_train,2,1,26,i-0,Setosa,Setosa,True,1.1312709688208995,na,na
id-63,classification_test_gen,2,0,0,i-1,Setosa,Setosa,gen,2.5943922060541813,na,na
id-63,classification_test_gen,2,0,1,g-2,gen,Versicolor,gen,0.6148438062518835,na,na
id-63,classification_test_gen,2,0,2,i-0,Setosa,Setosa,gen,1.104293396230787,na,na
id-63,classification_test_gen,2,0,3,i-13,Versicolor,Versicolor,gen,0.022518445271998644,na,na
id-63,classification_test_gen,2,0,4,i-8,Versicolor,Versicolor,gen,0.00025425851345062256,na,na
id-63,classification_test_gen,2,0,5,i-15,Versicolor,Versicolor,gen,0.00025392789393663406,na,na
id-63,classification_test_gen,2,0,6,i-6,Setosa,Setosa,gen,0.00017745140939950946,na,na
id-63,classification_test_gen,2,0,7,i-5,Setosa,Setosa,gen,0.14431099547073245,na,na
id-63,classification_test_gen,2,0,8,g-6,gen,Versicolor,gen,0.07435344438999891,na,na
id-63,classification_test_gen,2,0,9,g-1,gen,Setosa,gen,0.3017603438347578,na,na
id-63,classification_test_gen,2,0,10,g-12,gen,Versicolor,gen,0.2810846120119095,na,na
id-63,classification_test_gen,2,0,11,i-11,Versicolor,Versicolor,gen,0.3233713377267122,na,na
id-63,classification_test_gen,2,0,12,i-9,Versicolor,Versicolor,gen,0.06937388144433497,na,na
id-63,classification_test_gen,2,0,13,i-4,Setosa,Setosa,gen,0.00017910636961460114,na,na
id-63,classification_test_gen,2,0,14,g-8,gen,Versicolor,gen,0.08255063835531473,na,na
id-63,classification_test_gen,2,0,15,i-12,Versicolor,Versicolor,gen,0.14251065906137228,na,na
id-63,classification_test_gen,2,0,16,g-10,gen,Versicolor,gen,0.4360681809484959,na,na
id-63,classification_test_gen,2,0,17,g-3,gen,Versicolor,gen,1.8808947121724489,na,na
id-63,classification_test_gen,2,0,18,g-11,gen,Versicolor,gen,0.5904333186335862,na,na
id-63,classification_test_gen,2,0,19,i-10,Versicolor,Versicolor,gen,0.25924418959766626,na,na
id-63,classification_test_gen,2,0,20,g-13,gen,Setosa,gen,0.01272452063858509,na,na
id-63,classification_test_gen,2,0,21,i-2,Setosa,Setosa,gen,2.4010258410125966,na,na
id-63,classification_test_gen,2,0,22,i-3,Setosa,Setosa,gen,0.624251046217978,na,na
id-63,classification_test_gen,2,0,23,i-7,Setosa,Setosa,gen,0.5537733905948699,na,na
id-63,classification_test_gen,2,0,24,i-14,Versicolor,Versicolor,gen,0.035787900909781456,na,na
id-63,classification_test_gen,2,0,25,g-9,gen,Versicolor,gen,2.2385221081785858,na,na
id-63,classification_test_gen,2,0,26,g-4,gen,Versicolor,gen,0.5537439258769155,na,na
id-63,classification_test_gen,2,0,27,g-5,gen,Versicolor,gen,0.3776962840929627,na,na
id-63,classification_test_gen,2,0,28,g-7,gen,Versicolor,gen,0.5649882503785193,na,na
id-63,classification_test_gen,2,0,29,g-0,gen,Setosa,gen,0.7251556506380439,na,na
id-32,classification_train,3,0,0,i-15,Versicolor,Setosa,False,3.130361199844629,na,na
id-32,classification_train,3,0,1,i-13,Versicolor,Versicolor,True,1.5156226721592247,na,na
id-32,classification_train,3,0,2,i-12,Versicolor,Versicolor,True,0.15920631540939212,na,na
id-32,classification_train,3,0,3,i-3,Setosa,Versicolor,False,0.0002562450245022774,na,na
id-32,classification_train,3,0,4,i-8,Versicolor,Setosa,False,0.1010721237398684,na,na
id-32,classification_train,3,0,5,i-7,Setosa,Setosa,True,0.5873583783395588,na,na
id-32,classification_train,3,0,6,i-1,Setosa,Setosa,True,0.5558187165297568,na,na
id-32,classification_train,3,0,7,i-11,Versicolor,Versicolor,True,0.0002453201450407505,na,na
id-32,classification_train,3,0,8,i-5,Setosa,Versicolor,False,0.4141863752156496,na,na
id-32,classification_train,3,0,9,i-9,Versicolor,Setosa,False,0.3561495174653828,na,na
id-32,classification_train,3,0,10,i-6,Setosa,Versicolor,False,1.8413402740843596,na,na
id-32,classification_train,3,0,11,i-4,Setosa,Versicolor,False,0.3016693005338311,na,na
id-32,classification_train,3,0,12,i-14,Versicolor,Setosa,False,0.9747615167871118,na,na
id-32,classification_train,3,0,13,i-0,Setosa,Setosa,True,1.9055657489225268,na,na
id-32,classification_train,3,0,14,i-10,Versicolor,Versicolor,True,2.8158766659908,na,na
id-32,classification_train,3,0,15,i-2,Setosa,Setosa,True,0.10784275410696864,na,na
id-32,classification_train,3,1,16,i-13,Versicolor,Versicolor,True,0.05631034914404154,na,na
id-32,classification_train,3,1,17,i-12,Versicolor,Setosa,False,0.3061857027933001,na,na
id-32,classification_train,3,1,18,i-4,Setosa,Versicolor,False,1.0913795055821538,na,na
id-32,classification_train,3,1,19,i-3,Setosa,Setosa,True,1.1344958823174238,na,na
id-32,classification_train,3,1,20,i-0,Setosa,Setosa,True,0.4164809938520193,na,na
id-32,classification_train,3,1,21,i-2,Setosa,Setosa,True,0.11242371378466487,na,na
id-32,classification_train,3,1,22,i-11,Versicolor,Versicolor,True,0.25245667481794953,na,na
id-32,classification_train,3,1,23,i-1,Setosa,Setosa,True,0.03797426028177142,na,na
id-32,classification_train,3,1,24,i-7,Setosa,Versicolor,False,1.2352071446366608,na,na
id-32,classification_train,3,1,25,i-9,Versicolor,Versicolor,True,0.08435991359874606,na,na
id-32,classification_train,3,1,26,i-15,Versicolor,Versicolor,True,0.46430645324289793,na,na
id-32,classification_train,3,1,27,i-10,Versicolor,Setosa,False,0.5562133467756212,na,na
id-32,classification_train,3,1,28,i-5,Setosa,Setosa,True,0.5933589488267899,na,na
id-32,classification_train,3,1,29,i-14,Versicolor,Setosa,False,0.7257562046870589,na,na
id-32,classification_train,3,1,30,i-6,Setosa,Setosa,True,0.4957183240912855,na,na
id-32,classification_train,3,1,31,i-8,Versicolor,Versicolor,True,0.7265613568015397,na,na
id-32,classification_train,3,2,32,i-2,Setosa,Setosa,True,1.4377473476342857,na,na
id-32,classification_train,3,2,33,i-0,Setosa,Setosa,True,0.388816790189594,na,na
id-32,classification_train,3,2,34,i-4,Setosa,Versicolor,False,0.2328413473442197,na,na
id-32,classification_train,3,2,35,i-5,Setosa,Setosa,True,1.9279636861756444,na,na
id-32,classification_train,3,2,36,i-10,Versicolor,Setosa,False,0.4363101902417839,na,na
id-32,classification_train,3,2,37,i-11,Versicolor,Versicolor,True,0.7411444815807045,na,na
id-32,classification_train,3,2,38,i-15,Versicolor,Versicolor,True,0.1703605903312564,na,na
id-32,classification_train,3,2,39,i-6,Setosa,Setosa,True,0.3070842158049345,na,na
id-32,classification_train,3,2,40,i-8,Versicolor,Setosa,False,0.3189698155038059,na,na
id-32,classification_train,3,2,41,i-9,Versicolor,Versicolor,True,1.2450179536826909,na,na
id-32,classification_train,3,2,42,i-7,Setosa,Setosa,True,0.07695297431200743,na,na
id-32,classification_train,3,2,43,i-14,Versicolor,Versicolor,True,0.8989464156329632,na,na
id-32,classification_train,3,2,44,i-1,Setosa,Setosa,True,0.7621009577997029,na,na
id-32,classification_train,3,2,45,i-13,Versicolor,Versicolor,True,0.27129830187186604,na,na
id-32,classification_train,3,2,46,i-3,Setosa,Setosa,True,0.7664031605236232,na,na
id-32,classification_train,3,2,47,i-12,Versicolor,Versicolor,True,1.1768643814139068,na,na
id-32,classification_train,3,3,48,i-12,Versicolor,Versicolor,True,0.6736490684561431,na,na
id-32,classification_train,3,3,49,i-13,Versicolor,Versicolor,True,0.00025293417274951935,na,na
id-32,classification_train,3,3,50,i-7,Setosa,Setosa,True,0.09072002209722996,na,na
id-32,classification_test_gen,3,0,0,i-11,Versicolor,Versicolor,gen,5.058585765771569,na,na
id-32,classification_test_gen,3,0,1,g-11,gen,Setosa,gen,0.2613501003943384,na,na
id-32,classification_test_gen,3,0,2,i-2,Setosa,Setosa,gen,0.6305287191644311,na,na
id-32,classification_test_gen,3,0,3,g-1,gen,Setosa,gen,0.5312966597266495,na,na
id-32,classification_test_gen,3,0,4,i-4,Setosa,Versicolor,gen,0.11612370749935508,na,na
id-32,classification_test_gen,3,0,5,i-12,Versicolor,Versicolor,gen,0.13411979144439098,na,na
id-32,classification_test_gen,3,0,6,g-8,gen,Versicolor,gen,0.5321316081099212,na,na
id-32,classification_test_gen,3,0,7,i-1,Setosa,Setosa,gen,0.08408281160518527,na,na
id-32,classification_test_gen,3,0,8,g-2,gen,Setosa,gen,0.41597711155191053,na,na
id-32,classification_test_gen,3,0,9,g-5,gen,Setosa,gen,2.0323067419230942,na,na
id-32,classification_test_gen,3,0,10,i-8,Versicolor,Versicolor,gen,0.260802848264575,na,na
id-32,classification_test_gen,3,0,11,g-13,gen,Setosa,gen,0.16505691362544894,na,na
id-32,classification_test_gen,3,0,12,i-6,Setosa,Setosa,gen,0.05866985628381372,na,na
id-32,classification_test_gen,3,0,13,i-3,Setosa,Versicolor,gen,0.3498946879990399,na,na
id-32,classification_test_gen,3,0,14,i-14,Versicolor,Versicolor,gen,0.32077412493526936,na,na
id-32,classification_test_gen,3,0,15,g-3,gen,Versicolor,gen,1.5242343600839376,na,na
id-32,classification_test_gen,3,0,16,g-9,gen,Setosa,gen,0.3297092644497752,na,na
id-32,classification_test_gen,3,0,17,g-7,gen,Versicolor,gen,0.09584988933056593,na,na
id-32,classification_test_gen,3,0,18,g-6,gen,Setosa,gen,0.700481966137886,na,na
id-32,classification_test_gen,3,0,19,g-4,gen,Versicolor,gen,0.0002499548718333245,na,na
id-32,classification_test_gen,3,0,20,g-10,gen,Setosa,gen,0.41080255061388016,na,na
id-32,classification_test_gen,3,0,21,i-5,Setosa,Versicolor,gen,0.6632830617018044,na,na
id-32,classification_test_gen,3,0,22,i-0,Setosa,Setosa,gen,0.8956301277503371,na,na
id-32,classification_test_gen,3,0,23,i-10,Versicolor,Versicolor,gen,0.0002545895986258984,na,na
id-32,classification_test_gen,3,0,24,i-7,Setosa,Setosa,gen,2.9326856802217662,na,na
id-32,classification_test_gen,3,0,25,g-12,gen,Setosa,gen,3.153381540905684,na,na
id-32,classification_test_gen,3,0,26,i-13,Versicolor,Versicolor,gen,0.1774811572395265,na,na
id-32,classification_test_gen,3,0,27,i-15,Versicolor,Versicolor,gen,1.2194424453191461,na,na
id-32,classification_test_gen,3,0,28,g-0,gen,Setosa,gen,0.986977188847959,na,na
id-32,classification_test_gen,3,0,29,i-9,Versicolor,Versicolor,gen,2.91369507368654,na,na
id-48,classification_train,1,0,0,i-9,Versicolor,Versicolor,True,7.081262640655041,na,na
id-48,classification_train,1,0,1,i-8,Versicolor,Versicolor,True,1.9612613958306608,na,na
id-48,classification_train,1,0,2,i-10,Versicolor,Versicolor,True,1.5380580937489867,na,na
id-48,classification_train,1,0,3,i-3,Setosa,Versicolor,False,1.7695395536720753,na,na
id-48,classification_train,1,0,4,i-1,Setosa,Setosa,True,1.4642537543550134,na,na
id-48,classification_train,1,0,5,i-2,Setosa,Setosa,True,0.4254423151724041,na,na
id-48,classification_train,1,0,6,i-14,Versicolor,Setosa,False,1.0762605331838129,na,na
id-48,classification_train,1,0,7,i-13,Versicolor,Versicolor,True,1.0574654685333371,na,na
id-48,classification_train,1,0,8,i-6,Setosa,Setosa,True,0.8552795588038862,na,na
id-48,classification_train,1,0,9,i-11,Versicolor,Versicolor,True,0.0002588951028883457,na,na
id-48,classification_train,1,0,10,i-5,Setosa,Setosa,True,0.6988618210889399,na,na
id-48,classification_train,1,0,11,i-7,Setosa,Setosa,True,0.5037352750077844,na,na
id-48,classification_train,1,0,12,i-0,Setosa,Setosa,True,0.10526904743164778,na,na
id-48,classification_train,1,0,13,i-15,Versicolor,Versicolor,True,0.3421267215162516,na,na
id-48,classification_train,1,0,14,i-4,Setosa,Versicolor,False,0.00025161169469356537,na,na
id-48,classification_train,1,0,15,i-12,Versicolor,Setosa,False,4.5698101688176385,na,na
id-48,classification_train,1,1,16,i-11,Versicolor,Setosa,False,0.1849822895601392,na,na
id-48,classification_train,1,1,17,i-3,Setosa,Setosa,True,2.312907979357988,na,na
id-48,classification_train,1,1,18,i-2,Setosa,Setosa,True,0.1501224786043167,na,na
id-48,classification_train,1,1,19,i-9,Versicolor,Versicolor,True,0.03016427252441645,na,na
id-48,classification_train,1,1,20,i-4,Setosa,Versicolor,False,0.4905604217201471,na,na
id-48,classification_train,1,1,21,i-15,Versicolor,Versicolor,True,1.3388421954587102,na,na
id-48,classification_train,1,1,22,i-7,Setosa,Setosa,True,1.0074645914137363,na,na
id-48,classification_train,1,1,23,i-0,Setosa,Setosa,True,4.434719173237681,na,na
id-48,classification_train,1,1,24,i-10,Versicolor,Setosa,False,1.3151595732197163,na,na
id-48,classification_train,1,1,25,i-6,Setosa,Setosa,True,0.031065108720213175,na,na
id-48,classification_train,1,1,26,i-12,Versicolor,Setosa,False,0.1921737496741116,na,na
id-48,classification_train,1,1,27,i-5,Setosa,Setosa,True,2.1581839858554304,na,na
id-48,classification_train,1,1,28,i-13,Versicolor,Versicolor,True,0.4354442125186324,na,na
id-48,classification_train,1,1,29,i-8,Versicolor,Setosa,False,3.1676866319030523,na,na
id-48,classification_train,1,1,30,i-14,Versicolor,Setosa,False,1.765667051076889,na,na
id-48,classification_train,1,1,31,i-1,Setosa,Setosa,True,0.13923067087307572,na,na
id-48,classification_train,1,2,32,i-15,Versicolor,Versicolor,True,0.08894937857985498,na,na
id-48,classification_train,1,2,33,i-10,Versicolor,Setosa,False,0.32240863936021924,na,na
id-48,classification_train,1,2,34,i-0,Setosa,Setosa,True,0.2131671062670648,na,na
id-48,classification_train,1,2,35,i-14,Versicolor,Setosa,False,0.00017844559624791145,na,na
id-48,classification_train,1,2,36,i-1,Setosa,Setosa,True,0.2327242894098163,na,na
id-48,classification_train,1,2,37,i-12,Versicolor,Versicolor,True,2.801517417188734,na,na
id-48,classification_train,1,2,38,i-3,Setosa,Versicolor,False,0.7378748804330826,na,na
id-48,classification_train,1,2,39,i-4,Setosa,Versicolor,False,0.2802593717351556,na,na
id-48,classification_train,1,2,40,i-2,Setosa,Setosa,True,0.33500743424519897,na,na
id-48,classification_train,1,2,41,i-11,Versicolor,Versicolor,True,0.2889449424110353,na,na
id-48,classification_train,1,2,42,i-8,Versicolor,Setosa,False,0.00019102636724710464,na,na
id-48,classification_train,1,2,43,i-7,Setosa,Versicolor,False,0.34933506650850177,na,na
id-48,classification_train,1,2,44,i-6,Setosa,Setosa,True,0.192124089691788,na,na
id-48,classification_train,1,2,45,i-13,Versicolor,Versicolor,True,0.3509331317618489,na,na
id-48,classification_train,1,2,46,i-5,Setosa,Versicolor,False,0.16171780601143834,na,na
id-48,classification_train,1,2,47,i-9,Versicolor,Versicolor,True,0.2776492312550545,na,na
id-48,classification_train,1,3,48,i-3,Setosa,Setosa,True,0.0001804321072995663,na,na
id-48,classification_train,1,3,49,i-4,Setosa,Versicolor,False,1.4568103514611719,na,na
id-48,classification_train,1,3,50,i-13,Versicolor,Versicolor,True,0.4330413201823831,na,na
id-48,classification_train,1,3,51,i-8,Versicolor,Setosa,False,0.16628025518730286,na,na
id-48,classification_train,1,3,52,i-2,Setosa,Setosa,True,0.364674442447722,na,na
id-48,classification_train,1,3,53,i-7,Setosa,Setosa,True,0.15180397359654307,na,na
id-48,classification_train,1,3,54,i-0,Setosa,Setosa,True,0.00017877668142318726,na,na
id-48,classification_train,1,3,55,i-10,Versicolor,Setosa,False,0.6319175427779555,na,na
id-48,classification_train,1,3,56,i-11,Versicolor,Versicolor,True,0.3082005227915943,na,na
id-48,classification_train,1,3,57,i-1,Setosa,Setosa,True,0.8456679908558726,na,na
id-48,classification_train,1,3,58,i-12,Versicolor,Setosa,False,1.0960905170068145,na,na
id-48,classification_train,1,3,59,i-9,Versicolor,Versicolor,True,0.1005476862192154,na,na
id-48,classification_train,1,3,60,i-5,Setosa,Setosa,True,0.00017910776659846306,na,na
id-48,classification_train,1,3,61,i-15,Versicolor,Versicolor,True,0.05409883800894022,na,na
id-48,classification_train,1,3,62,i-6,Setosa,Setosa,True,0.08120073098689318,na,na
id-48,classification_train,1,3,63,i-14,Versicolor,Versicolor,True,0.41324642999097705,na,na
id-48,classification_train,1,4,64,i-9,Versicolor,Versicolor,True,0.4828044907189906,na,na
id-48,classification_train,1,4,65,i-10,Versicolor,Versicolor,True,0.8050158130936325,na,na
id-48,classification_train,1,4,66,i-4,Setosa,Versicolor,False,0.1716210450977087,na,na
id-48,classification_train,1,4,67,i-12,Versicolor,Setosa,False,1.3025935539044442,na,na
id-48,classification_train,1,4,68,i-5,Setosa,Setosa,True,0.5041401712223887,na,na
id-48,classification_train,1,4,69,i-8,Versicolor,Versicolor,True,0.05508376518264413,na,na
id-48,classification_train,1,4,70,i-11,Versicolor,Versicolor,True,0.12300237687304615,na,na
id-48,classification_train,1,4,71,i-7,Setosa,Setosa,True,0.09611402219161393,na,na
id-48,classification_train,1,4,72,i-6,Setosa,Setosa,True,0.000182087067514658,na,na
id-48,classification_train,1,4,73,i-14,Versicolor,Versicolor,True,0.1105618323199451,na,na
id-48,classification_train,1,4,74,i-13,Versicolor,Versicolor,True,1.0749299707822502,na,na
id-48,classification_train,1,4,75,i-2,Setosa,Setosa,True,0.753985645249486,na,na
id-48,classification_train,1,4,76,i-0,Setosa,Setosa,True,2.8391363490372896,na,na
id-48,classification_train,1,4,77,i-1,Setosa,Setosa,True,0.19395423354581,na,na
id-48,classification_test_gen,1,0,0,i-8,Versicolor,Setosa,gen,3.5725772357545797,na,na
id-48,classification_test_gen,1,0,1,g-7,gen,Versicolor,gen,3.0030163610354066,na,na
id-48,classification_test_gen,1,0,2,i-13,Versicolor,Versicolor,gen,0.2165658506564796,na,na
id-48,classification_test_gen,1,0,3,i-2,Setosa,Setosa,gen,0.3840862871147692,na,na
id-48,classification_test_gen,1,0,4,g-11,gen,Setosa,gen,0.00018010102212429047,na,na
id-48,classification_test_gen,1,0,5,i-5,Setosa,Versicolor,gen,0.25374313816428185,na,na
id-48,classification_test_gen,1,0,6,g-8,gen,Versicolor,gen,0.16775417001917958,na,na
id-48,classification_test_gen,1,0,7,g-4,gen,Versicolor,gen,0.05368136102333665,na,na
id-48,classification_test_gen,1,0,8,i-0,Setosa,Setosa,gen,0.00879515428096056,na,na
id-48,classification_test_gen,1,0,9,g-12,gen,Setosa,gen,0.03082243585959077,na,na
id-48,classification_test_gen,1,0,10,g-2,gen,Setosa,gen,1.5336737595498562,na,na
id-48,classification_test_gen,1,0,11,i-11,Versicolor,Versicolor,gen,0.00025161169469356537,na,na
id-48,classification_test_gen,1,0,12,g-9,gen,Setosa,gen,0.1763437306508422,na,na
id-48,classification_test_gen,1,0,13,g-3,gen,Versicolor,gen,0.7055328423157334,na,na
id-48,classification_test_gen,1,0,14,i-3,Setosa,Setosa,gen,0.12544797686859965,na,na
id-48,classification_test_gen,1,0,15,i-12,Versicolor,Setosa,gen,1.0181620623916388,na,na
id-48,classification_test_gen,1,0,16,g-6,gen,Setosa,gen,0.00017910776659846306,na,na
id-48,classification_test_gen,1,0,17,i-4,Setosa,Versicolor,gen,0.0002545909956097603,na,na
id-48,classification_test_gen,1,0,18,i-6,Setosa,Setosa,gen,0.02863109670579433,na,na
id-48,classification_test_gen,1,0,19,g-1,gen,Setosa,gen,0.2489750958047807,na,na
id-48,classification_test_gen,1,0,20,i-15,Versicolor,Versicolor,gen,0.28815435199067,na,na
id-48,classification_test_gen,1,0,21,i-7,Setosa,Setosa,gen,0.17045667860656974,na,na
id-48,classification_test_gen,1,0,22,g-5,gen,Setosa,gen,0.6040618079714477,na,na
id-48,classification_test_gen,1,0,23,i-10,Versicolor,Setosa,gen,0.2480156607925892,na,na
id-48,classification_test_gen,1,0,24,i-9,Versicolor,Versicolor,gen,0.185210395604372,na,na
id-48,classification_test_gen,1,0,25,g-10,gen,Setosa,gen,0.031570649705827236,na,na
id-48,classification_test_gen,1,0,26,g-0,gen,Setosa,gen,0.00017712172120809555,na,na
id-48,classification_test_gen,1,0,27,g-13,gen,Setosa,gen,0.03391030756756663,na,na
id-48,classification_test_gen,1,0,28,i-14,Versicolor,Versicolor,gen,0.4779752013273537,na,na
id-48,classification_test_gen,1,0,29,i-1,Setosa,Setosa,gen,0.00017811451107263565,na,na
id-85,classification_train,3,0,0,i-9,Versicolor,Versicolor,True,2.0341156860813503,na,na
id-85,classification_train,3,0,1,i-15,Versicolor,Versicolor,True,1.1252147792838514,na,na
id-85,classification_train,3,0,2,i-13,Versicolor,Versicolor,True,0.5884518893435597,na,na
id-85,classification_train,3,0,3,i-1,Setosa,Versicolor,False,0.9207835271954536,na,na
id-85,classification_train,3,0,4,i-14,Versicolor,Versicolor,True,0.8275354853831232,na,na
id-85,classification_train,3,0,5,i-4,Setosa,Versicolor,False,0.4994990974664688,na,na
id-85,classification_train,3,0,6,i-5,Setosa,Versicolor,False,3.05262095015496,na,na
id-85,classification_train,3,0,7,i-8,Versicolor,Setosa,False,0.08694818755611777,na,na
id-85,classification_train,3,0,8,i-0,Setosa,Versicolor,False,1.7177384486421945,na,na
id-85,classification_train,3,0,9,i-11,Versicolor,Setosa,False,3.4396592536941166,na,na
id-85,classification_train,3,0,10,i-2,Setosa,Versicolor,False,0.6100771185010672,na,na
id-85,classification_train,3,0,11,i-7,Setosa,Versicolor,False,1.9503957233391704,na,na
id-85,classification_train,3,0,12,i-10,Versicolor,Setosa,False,0.4311703909188509,na,na
id-85,classification_train,3,0,13,i-12,Versicolor,Versicolor,True,5.0770417004823685,na,na
id-85,classification_train,3,0,14,i-3,Setosa,Versicolor,False,0.6299030045047402,na,na
id-85,classification_train,3,0,15,i-6,Setosa,Versicolor,False,1.2382618905976417,na,na
id-85,classification_train,3,1,16,i-9,Versicolor,Versicolor,True,0.6697573880665004,na,na
id-85,classification_train,3,1,17,i-5,Setosa,Setosa,True,0.13736059609800574,na,na
id-85,classification_train,3,1,18,i-6,Setosa,Setosa,True,0.41531696589663625,na,na
id-85,classification_train,3,1,19,i-3,Setosa,Versicolor,False,0.5097535345703363,na,na
id-85,classification_train,3,1,20,i-11,Versicolor,Versicolor,True,0.6957656000740826,na,na
id-85,classification_train,3,1,21,i-13,Versicolor,Versicolor,True,0.6420845766551793,na,na
id-85,classification_train,3,1,22,i-8,Versicolor,Setosa,False,1.7398864310234785,na,na
id-85,classification_train,3,1,23,i-14,Versicolor,Setosa,False,0.6511789592914283,na,na
id-85,classification_train,3,1,24,i-4,Setosa,Versicolor,False,1.0151681187562644,na,na
id-85,classification_train,3,1,25,i-0,Setosa,Setosa,True,1.2454741625115275,na,na
id-85,classification_train,3,1,26,i-15,Versicolor,Versicolor,True,0.06433307100087404,na,na
id-85,classification_train,3,1,27,i-1,Setosa,Setosa,True,0.25058714533224696,na,na
id-85,classification_train,3,1,28,i-12,Versicolor,Setosa,False,0.7949830922298133,na,na
id-85,classification_train,3,1,29,i-10,Versicolor,Setosa,False,0.3814442818984389,na,na
id-85,classification_train,3,1,30,i-2,Setosa,Setosa,True,1.3696864736266434,na,na
id-85,classification_train,3,1,31,i-7,Setosa,Setosa,True,0.5829290468245745,na,na
id-85,classification_train,3,2,32,i-3,Setosa,Versicolor,False,0.6398985479027033,na,na
id-85,classification_train,3,2,33,i-8,Versicolor,Setosa,False,0.2620224952697754,na,na
id-85,classification_train,3,2,34,i-0,Setosa,Setosa,True,1.9263457665219903,na,na
id-85,classification_train,3,2,35,i-11,Versicolor,Versicolor,True,0.09770286548882724,na,na
id-85,classification_train,3,2,36,i-9,Versicolor,Versicolor,True,2.214370845817029,na,na
id-85,classification_train,3,2,37,i-1,Setosa,Setosa,True,0.0011087399907410145,na,na
id-85,classification_train,3,2,38,i-6,Setosa,Setosa,True,0.5070725623518229,na,na
id-85,classification_train,3,2,39,i-14,Versicolor,Versicolor,True,0.8694954486563802,na,na
id-85,classification_train,3,2,40,i-5,Setosa,Versicolor,False,0.3734917463734746,na,na
id-85,classification_train,3,2,41,i-13,Versicolor,Versicolor,True,0.5298796975985169,na,na
id-85,classification_train,3,2,42,i-10,Versicolor,Setosa,False,0.00017811357975006104,na,na
id-85,classification_train,3,2,43,i-7,Setosa,Setosa,True,0.10695119388401507,na,na
id-85,classification_train,3,2,44,i-12,Versicolor,Versicolor,True,0.8325875517912209,na,na
id-85,classification_train,3,2,45,i-2,Setosa,Setosa,True,0.28766189934685826,na,na
id-85,classification_train,3,2,46,i-15,Versicolor,Versicolor,True,2.2012556670233607,na,na
id-85,classification_train,3,2,47,i-4,Setosa,Versicolor,False,0.00025425897911190987,na,na
id-85,classification_train,3,3,48,i-0,Setosa,Setosa,True,0.4071532101370394,na,na
id-85,classification_train,3,3,49,i-1,Setosa,Setosa,True,0.33118151500821114,na,na
id-85,classification_train,3,3,50,i-10,Versicolor,Versicolor,True,0.6924552712589502,na,na
id-85,classification_train,3,3,51,i-3,Setosa,Setosa,True,0.16762466123327613,na,na
id-85,classification_train,3,3,52,i-13,Versicolor,Versicolor,True,0.5739253764040768,na,na
id-85,classification_train,3,3,53,i-12,Versicolor,Versicolor,True,0.4471443244256079,na,na
id-85,classification_train,3,3,54,i-4,Setosa,Versicolor,False,0.04471012856811285,na,na
id-85,classification_train,3,3,55,i-7,Setosa,Setosa,True,2.8078079260885715,na,na
id-85,classification_train,3,3,56,i-2,Setosa,Setosa,True,2.7708192490972583,na,na
id-85,classification_train,3,3,57,i-5,Setosa,Setosa,True,5.68997161462903,na,na
id-85,classification_train,3,3,58,i-9,Versicolor,Versicolor,True,1.846075841691345,na,na
id-85,classification_train,3,3,59,i-8,Versicolor,Versicolor,True,1.2137676430866122,na,na
id-85,classification_train,3,3,60,i-11,Versicolor,Versicolor,True,0.00024962378665804863,na,na
id-85,classification_train,3,3,61,i-14,Versicolor,Versicolor,True,0.8704125015065074,na,na
id-85,classification_train,3,3,62,i-15,Versicolor,Versicolor,True,1.1345481909811497,na,na
id-85,classification_train,3,3,63,i-6,Setosa,Setosa,True,0.00016520172357559204,na,na
id-85,classification_train,3,4,64,i-4,Setosa,Setosa,True,0.7386555280536413,na,na
id-85,classification_test_gen,3,0,0,i-5,Setosa,Setosa,gen,2.681294706184417,na,na
id-85,classification_test_gen,3,0,1,g-3,gen,Setosa,gen,0.4897124557755888,na,na
id-85,classification_test_gen,3,0,2,g-5,gen,Versicolor,gen,0.4433393832296133,na,na
id-85,classification_test_gen,3,0,3,i-8,Versicolor,Setosa,gen,0.6884261984378099,na,na
id-85,classification_test_gen,3,0,4,g-11,gen,Setosa,gen,0.17441979050636292,na,na
id-85,classification_test_gen,3,0,5,g-9,gen,Versicolor,gen,0.2720865700393915,na,na
id-85,classification_test_gen,3,0,6,i-1,Setosa,Setosa,gen,3.3647128702141345,na,na
id-85,classification_test_gen,3,0,7,i-4,Setosa,Versicolor,gen,0.3328487630933523,na,na
id-85,classification_test_gen,3,0,8,g-0,gen,Setosa,gen,0.10314128641039133,na,na
id-85,classification_test_gen,3,0,9,g-8,gen,Versicolor,gen,0.16362803289666772,na,na
id-85,classification_test_gen,3,0,10,i-9,Versicolor,Versicolor,gen,1.4919057679362595,na,na
id-85,classification_test_gen,3,0,11,g-2,gen,Setosa,gen,0.39900402119383216,na,na
id-85,classification_test_gen,3,0,12,i-14,Versicolor,Versicolor,gen,0.5242519066669047,na,na
id-85,classification_test_gen,3,0,13,i-15,Versicolor,Versicolor,gen,1.3777740844525397,na,na
id-85,classification_test_gen,3,0,14,i-0,Setosa,Setosa,gen,1.4861074788495898,na,na
id-85,classification_test_gen,3,0,15,i-10,Versicolor,Versicolor,gen,0.1341393245384097,na,na
id-85,classification_test_gen,3,0,16,i-3,Setosa,Versicolor,gen,0.2421714486554265,na,na
id-85,classification_test_gen,3,0,17,i-6,Setosa,Setosa,gen,0.00018274830654263496,na,na
id-85,classification_test_gen,3,0,18,g-12,gen,Setosa,gen,0.10161076812073587,na,na
id-85,classification_test_gen,3,0,19,g-4,gen,Versicolor,gen,0.185670405626297,na,na
id-85,classification_test_gen,3,0,20,g-13,gen,Setosa,gen,1.0159454615786672,na,na
id-85,classification_test_gen,3,0,21,i-13,Versicolor,Versicolor,gen,0.6918295565992594,na,na
id-85,classification_test_gen,3,0,22,g-6,gen,Setosa,gen,0.964316385332495,na,na
id-85,classification_test_gen,3,0,23,i-12,Versicolor,Versicolor,gen,0.3351754946634173,na,na
id-85,classification_test_gen,3,0,24,g-10,gen,Setosa,gen,0.2335365856997669,na,na
id-85,classification_test_gen,3,0,25,g-1,gen,Versicolor,gen,0.3251769714988768,na,na
id-85,classification_test_gen,3,0,26,g-7,gen,Setosa,gen,1.1417554975487292,na,na
id-85,classification_test_gen,3,0,27,i-2,Setosa,Versicolor,gen,0.2849991358816624,na,na
id-85,classification_test_gen,3,0,28,i-7,Setosa,Setosa,gen,1.1335586346685886,na,na
id-85,classification_test_gen,3,0,29,i-11,Versicolor,Versicolor,gen,0.2521901670843363,na,na
id-35,classification_train,2,0,0,i-1,Setosa,Versicolor,False,2.800096473190933,na,na
id-35,classification_train,2,0,1,i-2,Setosa,Setosa,True,4.508662560954691,na,na
id-35,classification_train,2,0,2,i-3,Setosa,Versicolor,False,2.4803085685707633,na,na
id-35,classification_train,2,0,3,i-15,Versicolor,Setosa,False,1.0819025952368977,na,na
id-35,classification_train,2,0,4,i-0,Setosa,Setosa,True,4.3904851702973255,na,na
id-35,classification_train,2,0,5,i-13,Versicolor,Versicolor,True,0.00026485463604331017,na,na
id-35,classification_train,2,0,6,i-6,Setosa,Versicolor,False,0.000258895568549633,na,na
id-35,classification_train,2,0,7,i-10,Versicolor,Versicolor,True,1.2644790131598709,na,na
id-35,classification_train,2,0,8,i-12,Versicolor,Setosa,False,4.749166287947446,na,na
id-35,classification_train,2,0,9,i-4,Setosa,Versicolor,False,2.256376784760505,na,na
id-35,classification_train,2,0,10,i-9,Versicolor,Setosa,False,2.9086288581602275,na,na
id-35,classification_train,2,0,11,i-7,Setosa,Versicolor,False,1.2970177056267858,na,na
id-35,classification_train,2,0,12,i-11,Versicolor,Versicolor,True,4.4961524927057335,na,na
id-35,classification_train,2,0,13,i-14,Versicolor,Setosa,False,1.1449008733034134,na,na
id-35,classification_train,2,0,14,i-5,Setosa,Setosa,True,6.4906802685,na,na
id-35,classification_train,2,0,15,i-8,Versicolor,Setosa,False,1.6091182101517916,na,na
id-35,classification_train,2,1,16,i-8,Versicolor,Setosa,False,2.7007303689606488,na,na
id-35,classification_train,2,1,17,i-3,Setosa,Setosa,True,3.417337769176811,na,na
id-35,classification_train,2,1,18,i-12,Versicolor,Versicolor,True,1.2883367701433601,na,na
id-35,classification_train,2,1,19,i-0,Setosa,Setosa,True,0.981761791743338,na,na
id-35,classification_train,2,1,20,i-1,Setosa,Setosa,True,1.4865458910353482,na,na
id-35,classification_train,2,1,21,i-14,Versicolor,Versicolor,True,2.5337505671195686,na,na
id-35,classification_train,2,1,22,i-9,Versicolor,Versicolor,True,5.478434061165898,na,na
id-35,classification_train,2,1,23,i-6,Setosa,Versicolor,False,7.657908040564507,na,na
id-35,classification_train,2,1,24,i-13,Versicolor,Setosa,False,2.7849885132163763,na,na
id-35,classification_train,2,1,25,i-11,Versicolor,Setosa,False,1.2417998579330742,na,na
id-35,classification_train,2,1,26,i-7,Setosa,Versicolor,False,2.3233753577806056,na,na
id-35,classification_train,2,1,27,i-10,Versicolor,Setosa,False,0.5055180769413711,na,na
id-35,classification_train,2,1,28,i-15,Versicolor,Versicolor,True,5.177652773912996,na,na
id-35,classification_train,2,1,29,i-2,Setosa,Versicolor,False,2.8788049235008657,na,na
id-35,classification_train,2,1,30,i-5,Setosa,Versicolor,False,0.12766646360978484,na,na
id-35,classification_train,2,1,31,i-4,Setosa,Setosa,True,0.4218939277343452,na,na
id-35,classification_train,2,2,32,i-6,Setosa,Setosa,True,1.687092682812363,na,na
id-35,classification_train,2,2,33,i-0,Setosa,Setosa,True,0.00018109427765011787,na,na
id-35,classification_train,2,2,34,i-7,Setosa,Versicolor,False,5.028956205118448,na,na
id-35,classification_train,2,2,35,i-9,Versicolor,Setosa,False,2.9237143052741885,na,na
id-35,classification_train,2,2,36,i-12,Versicolor,Versicolor,True,0.08377279853448273,na,na
id-35,classification_train,2,2,37,i-4,Setosa,Versicolor,False,0.7425025501288474,na,na
id-35,classification_train,2,2,38,i-1,Setosa,Setosa,True,0.06701380247250201,na,na
id-35,classification_train,2,2,39,i-2,Setosa,Setosa,True,0.20443319994956252,na,na
id-35,classification_train,2,2,40,i-14,Versicolor,Versicolor,True,4.732773121912032,na,na
id-35,classification_train,2,2,41,i-8,Versicolor,Setosa,False,25.566937822382894,na,na
id-35,classification_train,2,2,42,i-10,Versicolor,Versicolor,True,0.3688561632297933,na,na
id-35,classification_train,2,2,43,i-13,Versicolor,Setosa,False,1.6467791879549625,na,na
id-35,classification_train,2,2,44,i-11,Versicolor,Versicolor,True,0.2773231291212141,na,na
id-35,classification_train,2,2,45,i-15,Versicolor,Setosa,False,0.24760182574391365,na,na
id-35,classification_train,2,2,46,i-3,Setosa,Setosa,True,2.2678989460691814,na,na
id-35,classification_train,2,2,47,i-5,Setosa,Setosa,True,0.030297362245619294,na,na
id-35,classification_train,2,3,48,i-0,Setosa,Setosa,True,0.380702440161258,na,na
id-35,classification_train,2,3,49,i-4,Setosa,Versicolor,False,1.969483139924705,na,na
id-35,classification_train,2,3,50,i-3,Setosa,Setosa,True,1.4365721610374749,na,na
id-35,classification_train,2,3,51,i-2,Setosa,Setosa,True,0.0001804321072995663,na,na
id-35,classification_train,2,3,52,i-7,Setosa,Versicolor,False,2.4133973969146614,na,na
id-35,classification_train,2,3,53,i-13,Versicolor,Setosa,False,3.04516695253551,na,na
id-35,classification_train,2,3,54,i-5,Setosa,Versicolor,False,0.5980668272823095,na,na
id-35,classification_train,2,3,55,i-15,Versicolor,Versicolor,True,1.0950201735831795,na,na
id-35,classification_train,2,3,56,i-14,Versicolor,Versicolor,True,1.4764681793749332,na,na
id-35,classification_train,2,3,57,i-11,Versicolor,Versicolor,True,0.8471597833558917,na,na
id-35,classification_train,2,3,58,i-6,Setosa,Setosa,True,0.1758775869384408,na,na
id-35,classification_train,2,3,59,i-9,Versicolor,Setosa,False,0.00018109427765011787,na,na
id-35,classification_train,2,3,60,i-8,Versicolor,Versicolor,True,0.2719959132373333,na,na
id-35,classification_train,2,3,61,i-12,Versicolor,Setosa,False,0.36622615857049823,na,na
id-35,classification_train,2,3,62,i-10,Versicolor,Versicolor,True,0.09509135317057373,na,na
id-35,classification_train,2,3,63,i-1,Setosa,Setosa,True,0.4309837319888175,na,na
id-35,classification_train,2,4,64,i-3,Setosa,Setosa,True,0.804917486384511,na,na
id-35,classification_train,2,4,65,i-2,Setosa,Setosa,True,0.08277065586298704,na,na
id-35,classification_train,2,4,66,i-9,Versicolor,Versicolor,True,0.0002588951028883457,na,na
id-35,classification_train,2,4,67,i-10,Versicolor,Versicolor,True,0.7587255467660725,na,na
id-35,classification_train,2,4,68,i-6,Setosa,Setosa,True,0.8698730384930968,na,na
id-35,classification_train,2,4,69,i-13,Versicolor,Setosa,False,0.10817350773140788,na,na
id-35,classification_train,2,4,70,i-5,Setosa,Versicolor,False,0.1050190911628306,na,na
id-35,classification_train,2,4,71,i-8,Versicolor,Versicolor,True,0.20932274404913187,na,na
id-35,classification_train,2,4,72,i-4,Setosa,Setosa,True,0.27323675621300936,na,na
id-35,classification_train,2,4,73,i-0,Setosa,Setosa,True,0.0020234878174960613,na,na
id-35,classification_train,2,4,74,i-15,Versicolor,Setosa,False,0.18241750495508316,na,na
id-35,classification_train,2,4,75,i-14,Versicolor,Versicolor,True,0.1846638019196689,na,na
id-35,classification_train,2,4,76,i-12,Versicolor,Versicolor,True,0.4079860895872116,na,na
id-35,classification_train,2,4,77,i-11,Versicolor,Setosa,False,0.6126132956705987,na,na
id-35,classification_train,2,4,78,i-7,Setosa,Versicolor,False,2.183354428038001,na,na
id-35,classification_train,2,4,79,i-1,Setosa,Setosa,True,0.00019499938935041428,na,na
id-35,classification_test_gen,2,0,0,g-6,gen,Setosa,gen,2.0688955932855606,na,na
id-35,classification_test_gen,2,0,1,i-5,Setosa,Versicolor,gen,3.1472637061960995,na,na
id-35,classification_test_gen,2,0,2,g-2,gen,Setosa,gen,0.1236075689084828,na,na
id-35,classification_test_gen,2,0,3,i-10,Versicolor,Versicolor,gen,0.2993216081522405,na,na
id-35,classification_test_gen,2,0,4,i-4,Setosa,Setosa,gen,0.03528059832751751,na,na
id-35,classification_test_gen,2,0,5,i-12,Versicolor,Setosa,gen,0.09786305483430624,na,na
id-35,classification_test_gen,2,0,6,i-9,Versicolor,Versicolor,gen,0.0002549225464463234,na,na
id-35,classification_test_gen,2,0,7,i-1,Setosa,Setosa,gen,0.07303857896476984,na,na
id-35,classification_test_gen,2,0,8,i-0,Setosa,Setosa,gen,0.0001814248971641064,na,na
id-35,classification_test_gen,2,0,9,g-0,gen,Setosa,gen,0.059827308170497424,na,na
id-35,classification_test_gen,2,0,10,i-15,Versicolor,Setosa,gen,8.639142441097647,na,na
id-35,classification_test_gen,2,0,11,g-5,gen,Versicolor,gen,1.4241402242332697,na,na
id-35,classification_test_gen,2,0,12,g-4,gen,Setosa,gen,2.3743403055705135,na,na
id-35,classification_test_gen,2,0,13,g-13,gen,Versicolor,gen,0.4052319349721074,na,na
id-35,classification_test_gen,2,0,14,i-8,Versicolor,Setosa,gen,0.10193320596590638,na,na
id-35,classification_test_gen,2,0,15,i-14,Versicolor,Setosa,gen,0.5236318032257259,na,na
id-35,classification_test_gen,2,0,16,i-3,Setosa,Versicolor,gen,0.0028087813407182693,na,na
id-35,classification_test_gen,2,0,17,g-12,gen,Versicolor,gen,1.26035489840433,na,na
id-35,classification_test_gen,2,0,18,i-7,Setosa,Setosa,gen,0.17986596375703812,na,na
id-35,classification_test_gen,2,0,19,i-2,Setosa,Setosa,gen,0.15421348670497534,na,na
id-35,classification_test_gen,2,0,20,g-8,gen,Setosa,gen,0.00018903985619544983,na,na
id-35,classification_test_gen,2,0,21,i-11,Versicolor,Versicolor,gen,1.3006193954497576,na,na
id-35,classification_test_gen,2,0,22,g-11,gen,Setosa,gen,4.217333597596735,na,na
id-35,classification_test_gen,2,0,23,g-7,gen,Setosa,gen,1.155660916119814,na,na
id-35,classification_test_gen,2,0,24,i-13,Versicolor,Setosa,gen,2.7967738742008805,na,na
id-35,classification_test_gen,2,0,25,i-6,Setosa,Setosa,gen,0.6432033218443394,na,na
id-35,classification_test_gen,2,0,26,g-1,gen,Versicolor,gen,0.4144058306701481,na,na
id-35,classification_test_gen,2,0,27,g-9,gen,Versicolor,gen,1.0424402761273086,na,na
id-35,classification_test_gen,2,0,28,g-10,gen,Setosa,gen,0.22272007493302226,na,na
id-35,classification_test_gen,2,0,29,g-3,gen,Setosa,gen,0.7463045357726514,na,na
id-46,classification_train,2,0,0,i-7,Setosa,Setosa,True,0.7592661809176207,na,na
id-46,classification_train,2,0,1,i-8,Versicolor,Setosa,False,1.2532207127660513,na,na
id-46,classification_train,2,0,2,i-3,Setosa,Setosa,True,0.7243987554684281,na,na
id-46,classification_train,2,0,3,i-14,Versicolor,Versicolor,True,1.1884343358688056,na,na
id-46,classification_train,2,0,4,i-13,Versicolor,Versicolor,True,1.3700384069234133,na,na
id-46,classification_train,2,0,5,i-1,Setosa,Setosa,True,0.2094419286586344,na,na
id-46,classification_train,2,0,6,i-6,Setosa,Setosa,True,0.44393710093572736,na,na
id-46,classification_train,2,0,7,i-15,Versicolor,Versicolor,True,0.4838559627532959,na,na
id-46,classification_train,2,0,8,i-9,Versicolor,Versicolor,True,0.8251023744232953,na,na
id-46,classification_train,2,0,9,i-12,Versicolor,Versicolor,True,1.1614407021552324,na,na
id-46,classification_train,2,0,10,i-10,Versicolor,Versicolor,True,0.011001391336321829,na,na
id-46,classification_train,2,0,11,i-11,Versicolor,Versicolor,True,1.0513658709824083,na,na
id-46,classification_train,2,0,12,i-4,Setosa,Setosa,True,0.18564839847385886,na,na
id-46,classification_train,2,0,13,i-2,Setosa,Setosa,True,0.5468068979680538,na,na
id-46,classification_train,2,0,14,i-0,Setosa,Setosa,True,0.9951885878108442,na,na
id-46,classification_train,2,0,15,i-5,Setosa,Setosa,True,0.1559611945413053,na,na
id-46,classification_train,2,1,16,i-11,Versicolor,Versicolor,True,0.7880896278657019,na,na
id-46,classification_train,2,1,17,i-2,Setosa,Setosa,True,0.355911070946604,na,na
id-46,classification_train,2,1,18,i-15,Versicolor,Versicolor,True,0.03293200163170695,na,na
id-46,classification_train,2,1,19,i-7,Setosa,Setosa,True,0.1322640054859221,na,na
id-46,classification_train,2,1,20,i-12,Versicolor,Versicolor,True,0.09396605286747216,na,na
id-46,classification_train,2,1,21,i-5,Setosa,Setosa,True,0.9382726922631264,na,na
id-46,classification_train,2,1,22,i-6,Setosa,Setosa,True,0.00017645955085754397,na,na
id-46,classification_train,2,1,23,i-13,Versicolor,Versicolor,True,0.4314124654047191,na,na
id-46,classification_train,2,1,24,i-0,Setosa,Setosa,True,0.00017778389155864716,na,na
id-46,classification_train,2,1,25,i-3,Setosa,Setosa,True,0.2957179327495396,na,na
id-46,classification_train,2,1,26,i-14,Versicolor,Versicolor,True,0.23299874458462,na,na
id-46,classification_test_gen,2,0,0,i-13,Versicolor,Versicolor,gen,0.30244523519650107,na,na
id-46,classification_test_gen,2,0,1,g-6,gen,Versicolor,gen,0.7356577180325985,na,na
id-46,classification_test_gen,2,0,2,i-3,Setosa,Setosa,gen,1.2183354096487164,na,na
id-46,classification_test_gen,2,0,3,i-15,Versicolor,Versicolor,gen,0.8952500675804913,na,na
id-46,classification_test_gen,2,0,4,g-1,gen,Setosa,gen,0.17828213423490524,na,na
id-46,classification_test_gen,2,0,5,g-0,gen,Setosa,gen,0.01633787760511041,na,na
id-46,classification_test_gen,2,0,6,i-2,Setosa,Setosa,gen,0.00017414148896932602,na,na
id-46,classification_test_gen,2,0,7,g-11,gen,Versicolor,gen,0.03584970440715552,na,na
id-46,classification_test_gen,2,0,8,g-4,gen,Setosa,gen,0.7110255928710103,na,na
id-46,classification_test_gen,2,0,9,i-12,Versicolor,Versicolor,gen,0.026597345247864727,na,na
id-46,classification_test_gen,2,0,10,i-10,Versicolor,Versicolor,gen,1.548977380618453,na,na
id-46,classification_test_gen,2,0,11,g-13,gen,Setosa,gen,0.000182087067514658,na,na
id-46,classification_test_gen,2,0,12,i-14,Versicolor,Versicolor,gen,0.5682127652689815,na,na
id-46,classification_test_gen,2,0,13,i-1,Setosa,Setosa,gen,0.17649999493733048,na,na
id-46,classification_test_gen,2,0,14,i-0,Setosa,Setosa,gen,0.5588064598850906,na,na
id-46,classification_test_gen,2,0,15,i-7,Setosa,Setosa,gen,0.08723312150686979,na,na
id-46,classification_test_gen,2,0,16,g-3,gen,Versicolor,gen,0.08332353923469782,na,na
id-46,classification_test_gen,2,0,17,g-2,gen,Versicolor,gen,0.6632518097758293,na,na
id-46,classification_test_gen,2,0,18,g-7,gen,Versicolor,gen,0.1460195519030094,na,na
id-46,classification_test_gen,2,0,19,i-8,Versicolor,Versicolor,gen,1.4971546353772285,na,na
id-46,classification_test_gen,2,0,20,g-12,gen,Setosa,gen,0.2170634465292096,na,na
id-46,classification_test_gen,2,0,21,i-11,Versicolor,Versicolor,gen,0.1043245098553598,na,na
id-46,classification_test_gen,2,0,22,i-6,Setosa,Setosa,gen,0.35018889093771577,na,na
id-46,classification_test_gen,2,0,23,i-9,Versicolor,Versicolor,gen,0.01826336933299899,na,na
id-46,classification_test_gen,2,0,24,g-10,gen,Versicolor,gen,0.1903108302503824,na,na
id-46,classification_test_gen,2,0,25,i-4,Setosa,Setosa,gen,0.05125794280320406,na,na
id-46,classification_test_gen,2,0,26,g-5,gen,Setosa,gen,0.5033211093395948,na,na
id-46,classification_test_gen,2,0,27,g-8,gen,Versicolor,gen,0.0781257706694305,na,na
id-46,classification_test_gen,2,0,28,i-5,Setosa,Setosa,gen,0.4908643425442278,na,na
id-46,classification_test_gen,2,0,29,g-9,gen,Versicolor,gen,0.025371400639414787,na,na
id-76,classification_train,2,0,0,i-13,Versicolor,Setosa,False,2.4419864476658404,na,na
id-76,classification_train,2,0,1,i-4,Setosa,Setosa,True,2.4191344757564366,na,na
id-76,classification_train,2,0,2,i-7,Setosa,Setosa,True,0.9102623485960066,na,na
id-76,classification_train,2,0,3,i-14,Versicolor,Versicolor,True,0.8527475502341986,na,na
id-76,classification_train,2,0,4,i-5,Setosa,Setosa,True,0.4330691299401224,na,na
id-76,classification_train,2,0,5,i-9,Versicolor,Versicolor,True,2.460131626110524,na,na
id-76,classification_train,2,0,6,i-8,Versicolor,Versicolor,True,0.19388040574267507,na,na
id-76,classification_train,2,0,7,i-6,Setosa,Setosa,True,0.3926357883028686,na,na
id-76,classification_train,2,0,8,i-10,Versicolor,Versicolor,True,0.5649904799647629,na,na
id-76,classification_train,2,0,9,i-15,Versicolor,Versicolor,True,0.34893745370209217,na,na
id-76,classification_train,2,0,10,i-0,Setosa,Setosa,True,1.2824248881079257,na,na
id-76,classification_train,2,0,11,i-1,Setosa,Setosa,True,0.4436004045419395,na,na
id-76,classification_train,2,0,12,i-11,Versicolor,Versicolor,True,0.3933800295926631,na,na
id-76,classification_train,2,0,13,i-12,Versicolor,Versicolor,True,4.148797875270248,na,na
id-76,classification_train,2,0,14,i-3,Setosa,Setosa,True,0.5450817025266588,na,na
id-76,classification_train,2,0,15,i-2,Setosa,Setosa,True,0.28188392287120223,na,na
id-76,classification_train,2,1,16,i-0,Setosa,Setosa,True,0.2670686272904277,na,na
id-76,classification_train,2,1,17,i-15,Versicolor,Versicolor,True,0.13229711260646582,na,na
id-76,classification_train,2,1,18,i-5,Setosa,Setosa,True,1.137762052938342,na,na
id-76,classification_train,2,1,19,i-13,Versicolor,Versicolor,True,0.14501972682774067,na,na
id-76,classification_train,2,1,20,i-14,Versicolor,Versicolor,True,0.00024995626881718636,na,na
id-76,classification_train,2,1,21,i-3,Setosa,Setosa,True,0.14415961224585772,na,na
id-76,classification_train,2,1,22,i-2,Setosa,Setosa,True,0.18694982677698133,na,na
id-76,classification_train,2,1,23,i-6,Setosa,Setosa,True,0.7455758545547724,na,na
id-76,classification_train,2,1,24,i-1,Setosa,Setosa,True,0.15890604490414262,na,na
id-76,classification_train,2,1,25,i-7,Setosa,Setosa,True,0.7879509106278421,na,na
id-76,classification_train,2,1,26,i-11,Versicolor,Versicolor,True,0.44282405031844974,na,na
id-76,classification_test_gen,2,0,0,g-11,gen,Versicolor,gen,1.6371292164549232,na,na
id-76,classification_test_gen,2,0,1,g-1,gen,Setosa,gen,0.06226430041715503,na,na
id-76,classification_test_gen,2,0,2,i-1,Setosa,Setosa,gen,0.1954059675335884,na,na
id-76,classification_test_gen,2,0,3,i-0,Setosa,Setosa,gen,0.20623983815312386,na,na
id-76,classification_test_gen,2,0,4,i-8,Versicolor,Versicolor,gen,0.2618410629220307,na,na
id-76,classification_test_gen,2,0,5,i-11,Versicolor,Versicolor,gen,0.3874817211180925,na,na
id-76,classification_test_gen,2,0,6,g-13,gen,Setosa,gen,0.2789281471632421,na,na
id-76,classification_test_gen,2,0,7,g-7,gen,Versicolor,gen,2.935897941235453,na,na
id-76,classification_test_gen,2,0,8,i-15,Versicolor,Versicolor,gen,0.1421162597835064,na,na
id-76,classification_test_gen,2,0,9,g-9,gen,Setosa,gen,1.3156144609674811,na,na
id-76,classification_test_gen,2,0,10,g-3,gen,Versicolor,gen,0.2712440579198301,na,na
id-76,classification_test_gen,2,0,11,i-14,Versicolor,Versicolor,gen,0.00025094952434301376,na,na
id-76,classification_test_gen,2,0,12,g-0,gen,Setosa,gen,0.00017645955085754397,na,na
id-76,classification_test_gen,2,0,13,i-9,Versicolor,Versicolor,gen,0.05444546602666378,na,na
id-76,classification_test_gen,2,0,14,i-10,Versicolor,Versicolor,gen,0.0002532671205699444,na,na
id-76,classification_test_gen,2,0,15,i-5,Setosa,Setosa,gen,0.00017877668142318726,na,na
id-76,classification_test_gen,2,0,16,g-6,gen,Versicolor,gen,0.4067041943781078,na,na
id-76,classification_test_gen,2,0,17,g-2,gen,Versicolor,gen,0.6774953505955637,na,na
id-76,classification_test_gen,2,0,18,g-5,gen,Setosa,gen,0.22813999047502875,na,na
id-76,classification_test_gen,2,0,19,g-8,gen,Versicolor,gen,1.94783625472337,na,na
id-76,classification_test_gen,2,0,20,g-4,gen,Versicolor,gen,0.17545381980016828,na,na
id-76,classification_test_gen,2,0,21,i-2,Setosa,Setosa,gen,0.5576828150078654,na,na
id-76,classification_test_gen,2,0,22,i-7,Setosa,Setosa,gen,0.1416713041253388,na,na
id-76,classification_test_gen,2,0,23,g-12,gen,Versicolor,gen,3.315270480699837,na,na
id-76,classification_test_gen,2,0,24,i-6,Setosa,Setosa,gen,0.10557230561971664,na,na
id-76,classification_test_gen,2,0,25,i-13,Versicolor,Versicolor,gen,0.3660189099609852,na,na
id-76,classification_test_gen,2,0,26,i-4,Setosa,Setosa,gen,0.2599294758401811,na,na
id-76,classification_test_gen,2,0,27,i-3,Setosa,Setosa,gen,0.5019223466515541,na,na
id-76,classification_test_gen,2,0,28,i-12,Versicolor,Versicolor,gen,0.3648019037209451,na,na
id-76,classification_test_gen,2,0,29,g-10,gen,Setosa,gen,0.18343322211876512,na,na
id-43,classification_train,3,0,0,i-12,Versicolor,Setosa,False,5.957949132658541,na,na
id-43,classification_train,3,0,1,i-1,Setosa,Versicolor,False,1.1513085670303551,na,na
id-43,classification_train,3,0,2,i-5,Setosa,Setosa,True,0.18840339314192533,na,na
id-43,classification_train,3,0,3,i-0,Setosa,Versicolor,False,2.3807904901914303,na,na
id-43,classification_train,3,0,4,i-14,Versicolor,Versicolor,True,0.4371976549737155,na,na
id-43,classification_train,3,0,5,i-7,Setosa,Versicolor,False,2.666785849956796,na,na
id-43,classification_train,3,0,6,i-3,Setosa,Setosa,True,1.7021634429693222,na,na
id-43,classification_train,3,0,7,i-15,Versicolor,Versicolor,True,1.9330199472606184,na,na
id-43,classification_train,3,0,8,i-11,Versicolor,Setosa,False,0.6897432126570493,na,na
id-43,classification_train,3,0,9,i-8,Versicolor,Versicolor,True,1.0113045412581414,na,na
id-43,classification_train,3,0,10,i-6,Setosa,Setosa,True,0.6588475764729083,na,na
id-43,classification_train,3,0,11,i-9,Versicolor,Versicolor,True,0.00025028502568602557,na,na
id-43,classification_train,3,0,12,i-2,Setosa,Setosa,True,0.6380024075042456,na,na
id-43,classification_train,3,0,13,i-4,Setosa,Versicolor,False,0.6792057487182319,na,na
id-43,classification_train,3,0,14,i-10,Versicolor,Setosa,False,0.7551129658240825,na,na
id-43,classification_train,3,0,15,i-13,Versicolor,Versicolor,True,1.3260022327303886,na,na
id-43,classification_train,3,1,16,i-8,Versicolor,Setosa,False,0.9538124769460409,na,na
id-43,classification_train,3,1,17,i-7,Setosa,Setosa,True,0.26863762829452753,na,na
id-43,classification_train,3,1,18,i-10,Versicolor,Versicolor,True,0.3874981957487762,na,na
id-43,classification_train,3,1,19,i-13,Versicolor,Versicolor,True,0.4486528306733817,na,na
id-43,classification_train,3,1,20,i-9,Versicolor,Versicolor,True,0.3110119460616261,na,na
id-43,classification_train,3,1,21,i-15,Versicolor,Versicolor,True,0.9289789695758373,na,na
id-43,classification_train,3,1,22,i-11,Versicolor,Versicolor,True,0.00025194045156240463,na,na
id-43,classification_train,3,1,23,i-14,Versicolor,Setosa,False,0.8048481801524758,na,na
id-43,classification_train,3,1,24,i-5,Setosa,Versicolor,False,1.1765145226381721,na,na
id-43,classification_train,3,1,25,i-2,Setosa,Setosa,True,0.6623297166079283,na,na
id-43,classification_train,3,1,26,i-1,Setosa,Setosa,True,2.0743459151126444,na,na
id-43,classification_train,3,1,27,i-3,Setosa,Versicolor,False,0.8839554702863097,na,na
id-43,classification_train,3,1,28,i-0,Setosa,Versicolor,False,0.1511493248399347,na,na
id-43,classification_train,3,1,29,i-6,Setosa,Setosa,True,0.5910620428621769,na,na
id-43,classification_train,3,1,30,i-4,Setosa,Setosa,True,1.5761859738267958,na,na
id-43,classification_train,3,1,31,i-12,Versicolor,Versicolor,True,2.1158429111819714,na,na
id-43,classification_train,3,2,32,i-11,Versicolor,Versicolor,True,3.2921349578537047,na,na
id-43,classification_train,3,2,33,i-0,Setosa,Versicolor,False,0.5225832595024258,na,na
id-43,classification_train,3,2,34,i-2,Setosa,Setosa,True,0.09365759161300956,na,na
id-43,classification_train,3,2,35,i-5,Setosa,Setosa,True,1.3460554943885654,na,na
id-43,classification_train,3,2,36,i-8,Versicolor,Versicolor,True,1.142066559754312,na,na
id-43,classification_train,3,2,37,i-3,Setosa,Versicolor,False,0.00024598115123808384,na,na
id-43,classification_train,3,2,38,i-13,Versicolor,Versicolor,True,0.4680039039812982,na,na
id-43,classification_train,3,2,39,i-14,Versicolor,Setosa,False,0.27029725653119385,na,na
id-43,classification_train,3,2,40,i-15,Versicolor,Versicolor,True,0.05156633420847356,na,na
id-43,classification_train,3,2,41,i-4,Setosa,Versicolor,False,3.5509717417880893,na,na
id-43,classification_train,3,2,42,i-6,Setosa,Setosa,True,1.5645838051568717,na,na
id-43,classification_train,3,2,43,i-7,Setosa,Setosa,True,0.294528225902468,na,na
id-43,classification_train,3,2,44,i-9,Versicolor,Versicolor,True,0.08823243132792412,na,na
id-43,classification_train,3,2,45,i-1,Setosa,Setosa,True,0.2288985869381577,na,na
id-43,classification_train,3,2,46,i-12,Versicolor,Versicolor,True,0.1010251094121486,na,na
id-43,classification_train,3,2,47,i-10,Versicolor,Versicolor,True,0.9073236847762018,na,na
id-43,classification_train,3,3,48,i-1,Setosa,Setosa,True,0.396475019864738,na,na
id-43,classification_train,3,3,49,i-4,Setosa,Versicolor,False,0.3124779015779495,na,na
id-43,classification_train,3,3,50,i-15,Versicolor,Versicolor,True,0.5220578596927226,na,na
id-43,classification_train,3,3,51,i-2,Setosa,Setosa,True,0.1135850485879928,na,na
id-43,classification_train,3,3,52,i-13,Versicolor,Versicolor,True,0.7587675910908729,na,na
id-43,classification_train,3,3,53,i-10,Versicolor,Versicolor,True,2.762102738721296,na,na
id-43,classification_train,3,3,54,i-8,Versicolor,Setosa,False,0.15141516993753612,na,na
id-43,classification_train,3,3,55,i-14,Versicolor,Versicolor,True,1.4034482392016798,na,na
id-43,classification_train,3,3,56,i-6,Setosa,Setosa,True,7.457803132943809,na,na
id-43,classification_train,3,3,57,i-5,Setosa,Versicolor,False,6.839161068433897,na,na
id-43,classification_train,3,3,58,i-3,Setosa,Versicolor,False,0.8160398283507675,na,na
id-43,classification_train,3,3,59,i-0,Setosa,Setosa,True,0.9863177507650108,na,na
id-43,classification_train,3,3,60,i-9,Versicolor,Setosa,False,0.00017612637020647526,na,na
id-43,classification_train,3,3,61,i-11,Versicolor,Versicolor,True,1.3993930257856846,na,na
id-43,classification_train,3,3,62,i-7,Setosa,Versicolor,False,0.84611541708,na,na
id-43,classification_train,3,3,63,i-12,Versicolor,Versicolor,True,1.1337912622839212,na,na
id-43,classification_train,3,4,64,i-3,Setosa,Versicolor,False,0.19709450844675305,na,na
id-43,classification_train,3,4,65,i-8,Versicolor,Versicolor,True,0.00024730549193918705,na,na
id-43,classification_train,3,4,66,i-7,Setosa,Setosa,True,0.00018572737462818623,na,na
id-43,classification_train,3,4,67,i-15,Versicolor,Versicolor,True,0.21621449827216568,na,na
id-43,classification_train,3,4,68,i-5,Setosa,Setosa,True,0.00016586342826485634,na,na
id-43,classification_train,3,4,69,i-2,Setosa,Versicolor,False,0.060154488077387214,na,na
id-43,classification_train,3,4,70,i-6,Setosa,Setosa,True,0.915653608040884,na,na
id-43,classification_train,3,4,71,i-1,Setosa,Setosa,True,0.214018213795498,na,na
id-43,classification_train,3,4,72,i-14,Versicolor,Setosa,False,0.1099807454738766,na,na
id-43,classification_train,3,4,73,i-0,Setosa,Setosa,True,0.10677537508308887,na,na
id-43,classification_train,3,4,74,i-11,Versicolor,Setosa,False,0.959471699781716,na,na
id-43,classification_train,3,4,75,i-10,Versicolor,Versicolor,True,1.272806728258729,na,na
id-43,classification_train,3,4,76,i-12,Versicolor,Versicolor,True,0.60071887425147,na,na
id-43,classification_train,3,4,77,i-9,Versicolor,Versicolor,True,0.4818808194249869,na,na
id-43,classification_train,3,4,78,i-13,Versicolor,Versicolor,True,0.8834409955888987,na,na
id-43,classification_train,3,4,79,i-4,Setosa,Versicolor,False,0.3962969069834799,na,na
id-43,classification_test_gen,3,0,0,g-9,gen,Setosa,gen,3.4876075794454664,na,na
id-43,classification_test_gen,3,0,1,g-10,gen,Setosa,gen,0.6136022638529539,na,na
id-43,classification_test_gen,3,0,2,i-7,Setosa,Setosa,gen,0.42161145177669823,na,na
id-43,classification_test_gen,3,0,3,g-6,gen,Setosa,gen,0.985950268805027,na,na
id-43,classification_test_gen,3,0,4,g-0,gen,Setosa,gen,0.0001731468364596367,na,na
id-43,classification_test_gen,3,0,5,g-13,gen,Setosa,gen,0.00017281598411500454,na,na
id-43,classification_test_gen,3,0,6,i-8,Versicolor,Versicolor,gen,0.6882669944316149,na,na
id-43,classification_test_gen,3,0,7,g-8,gen,Versicolor,gen,0.1880292899440974,na,na
id-43,classification_test_gen,3,0,8,i-12,Versicolor,Versicolor,gen,1.386534797027707,na,na
id-43,classification_test_gen,3,0,9,i-15,Versicolor,Versicolor,gen,0.4110905409324914,na,na
id-43,classification_test_gen,3,0,10,i-4,Setosa,Versicolor,gen,0.16834152396768332,na,na
id-43,classification_test_gen,3,0,11,g-3,gen,Versicolor,gen,0.5486360788345337,na,na
id-43,classification_test_gen,3,0,12,g-12,gen,Setosa,gen,8.948295942973346,na,na
id-43,classification_test_gen,3,0,13,g-7,gen,Setosa,gen,20.289012354100127,na,na
id-43,classification_test_gen,3,0,14,g-2,gen,Versicolor,gen,0.21155542228370905,na,na
id-43,classification_test_gen,3,0,15,i-11,Versicolor,Versicolor,gen,0.11508642765693368,na,na
id-43,classification_test_gen,3,0,16,g-1,gen,Setosa,gen,0.04785675229504705,na,na
id-43,classification_test_gen,3,0,17,i-9,Versicolor,Versicolor,gen,1.3869674985762686,na,na
id-43,classification_test_gen,3,0,18,i-1,Setosa,Setosa,gen,0.2402147154789418,na,na
id-43,classification_test_gen,3,0,19,i-14,Versicolor,Versicolor,gen,0.14463032642379406,na,na
id-43,classification_test_gen,3,0,20,g-5,gen,Versicolor,gen,0.5489631711971015,na,na
id-43,classification_test_gen,3,0,21,i-6,Setosa,Setosa,gen,1.214038739912212,na,na
id-43,classification_test_gen,3,0,22,i-13,Versicolor,Versicolor,gen,0.0068937637843191615,na,na
id-43,classification_test_gen,3,0,23,i-3,Setosa,Setosa,gen,0.3127804945688695,na,na
id-43,classification_test_gen,3,0,24,g-4,gen,Versicolor,gen,0.0002516093663871289,na,na
id-43,classification_test_gen,3,0,25,i-10,Versicolor,Versicolor,gen,0.18163708923384547,na,na
id-43,classification_test_gen,3,0,26,i-0,Setosa,Setosa,gen,2.6434600118082017,na,na
id-43,classification_test_gen,3,0,27,g-11,gen,Setosa,gen,33.00811406900175,na,na
id-43,classification_test_gen,3,0,28,i-5,Setosa,Versicolor,gen,0.0184903044719249,na,na
id-43,classification_test_gen,3,0,29,i-2,Setosa,Setosa,gen,0.0001751333475112915,na,na
id-62,classification_train,3,0,0,i-15,Versicolor,Setosa,False,2.95733751449734,na,na
id-62,classification_train,3,0,1,i-2,Setosa,Versicolor,False,1.1161869410425425,na,na
id-62,classification_train,3,0,2,i-1,Setosa,Setosa,True,0.5685078129172325,na,na
id-62,classification_train,3,0,3,i-0,Setosa,Setosa,True,0.00017678923904895782,na,na
id-62,classification_train,3,0,4,i-10,Versicolor,Setosa,False,2.627139597199857,na,na
id-62,classification_train,3,0,5,i-14,Versicolor,Versicolor,True,0.8619842240586877,na,na
id-62,classification_train,3,0,6,i-12,Versicolor,Versicolor,True,1.3191446186974645,na,na
id-62,classification_train,3,0,7,i-3,Setosa,Versicolor,False,0.7010911265388131,na,na
id-62,classification_train,3,0,8,i-11,Versicolor,Versicolor,True,1.212236131541431,na,na
id-62,classification_train,3,0,9,i-8,Versicolor,Versicolor,True,0.38625433947891,na,na
id-62,classification_train,3,0,10,i-5,Setosa,Versicolor,False,1.0273298267275095,na,na
id-62,classification_train,3,0,11,i-6,Setosa,Setosa,True,0.18844672478735447,na,na
id-62,classification_train,3,0,12,i-9,Versicolor,Versicolor,True,0.5112592224031687,na,na
id-62,classification_train,3,0,13,i-13,Versicolor,Versicolor,True,0.3268786510452628,na,na
id-62,classification_train,3,0,14,i-4,Setosa,Versicolor,False,0.7012132899835706,na,na
id-62,classification_train,3,0,15,i-7,Setosa,Setosa,True,0.4834966929629445,na,na
id-62,classification_train,3,1,16,i-2,Setosa,Versicolor,False,0.19952849578112364,na,na
id-62,classification_train,3,1,17,i-10,Versicolor,Versicolor,True,1.2538392059504986,na,na
id-62,classification_train,3,1,18,i-5,Setosa,Setosa,True,0.9772643754258752,na,na
id-62,classification_train,3,1,19,i-12,Versicolor,Versicolor,True,2.0949315121397376,na,na
id-62,classification_train,3,1,20,i-6,Setosa,Setosa,True,0.9268172048032284,na,na
id-62,classification_train,3,1,21,i-1,Setosa,Versicolor,False,0.5869154119864106,na,na
id-62,classification_train,3,1,22,i-7,Setosa,Versicolor,False,0.13840709626674652,na,na
id-62,classification_train,3,1,23,i-14,Versicolor,Versicolor,True,0.24675373267382386,na,na
id-62,classification_train,3,1,24,i-15,Versicolor,Setosa,False,0.6001699697226286,na,na
id-62,classification_train,3,1,25,i-0,Setosa,Setosa,True,0.6645089993253349,na,na
id-62,classification_train,3,1,26,i-13,Versicolor,Setosa,False,1.137216581963003,na,na
id-62,classification_train,3,1,27,i-3,Setosa,Versicolor,False,3.413859282620251,na,na
id-62,classification_train,3,1,28,i-9,Versicolor,Setosa,False,0.7155100433155894,na,na
id-62,classification_train,3,1,29,i-11,Versicolor,Versicolor,True,2.3286568056792016,na,na
id-62,classification_train,3,1,30,i-4,Setosa,Versicolor,False,0.2218492953106761,na,na
id-62,classification_train,3,1,31,i-8,Versicolor,Versicolor,True,1.0413627205416558,na,na
id-62,classification_train,3,2,32,i-10,Versicolor,Versicolor,True,0.316936076618731,na,na
id-62,classification_train,3,2,33,i-11,Versicolor,Setosa,False,0.6092332312837243,na,na
id-62,classification_train,3,2,34,i-14,Versicolor,Setosa,False,0.2671834826469421,na,na
id-62,classification_train,3,2,35,i-6,Setosa,Setosa,True,0.09315898548811674,na,na
id-62,classification_train,3,2,36,i-5,Setosa,Setosa,True,0.9827335849404336,na,na
id-62,classification_train,3,2,37,i-12,Versicolor,Setosa,False,0.6730882432311773,na,na
id-62,classification_train,3,2,38,i-0,Setosa,Setosa,True,0.5786102907732129,na,na
id-62,classification_train,3,2,39,i-1,Setosa,Versicolor,False,1.0798464911058543,na,na
id-62,classification_train,3,2,40,i-4,Setosa,Versicolor,False,0.09902381896972656,na,na
id-62,classification_train,3,2,41,i-7,Setosa,Versicolor,False,0.3101859726011753,na,na
id-62,classification_train,3,2,42,i-15,Versicolor,Versicolor,True,0.21010009478777647,na,na
id-62,classification_train,3,2,43,i-13,Versicolor,Versicolor,True,2.3811161955818534,na,na
id-62,classification_train,3,2,44,i-8,Versicolor,Setosa,False,3.571813175454736,na,na
id-62,classification_train,3,2,45,i-2,Setosa,Versicolor,False,0.7714860159903765,na,na
id-62,classification_train,3,2,46,i-3,Setosa,Setosa,True,1.6124879410490394,na,na
id-62,classification_train,3,2,47,i-9,Versicolor,Versicolor,True,1.558233842253685,na,na
id-62,classification_train,3,3,48,i-11,Versicolor,Versicolor,True,0.17616649437695742,na,na
id-62,classification_train,3,3,49,i-8,Versicolor,Setosa,False,1.6771683003753424,na,na
id-62,classification_train,3,3,50,i-2,Setosa,Setosa,True,9.070519038476052,na,na
id-62,classification_train,3,3,51,i-10,Versicolor,Setosa,False,0.3658262453973293,na,na
id-62,classification_train,3,3,52,i-14,Versicolor,Setosa,False,0.2678035693243146,na,na
id-62,classification_train,3,3,53,i-12,Versicolor,Versicolor,True,2.6089011719450355,na,na
id-62,classification_train,3,3,54,i-7,Setosa,Setosa,True,0.6660325648263097,na,na
id-62,classification_train,3,3,55,i-4,Setosa,Versicolor,False,0.37129379902035,na,na
id-62,classification_train,3,3,56,i-9,Versicolor,Setosa,False,0.411182944662869,na,na
id-62,classification_train,3,3,57,i-13,Versicolor,Setosa,False,0.3783176951110363,na,na
id-62,classification_train,3,3,58,i-5,Setosa,Versicolor,False,11.374365429393947,na,na
id-62,classification_train,3,3,59,i-6,Setosa,Setosa,True,0.34573914762586355,na,na
id-62,classification_train,3,3,60,i-3,Setosa,Versicolor,False,0.1090163830667734,na,na
id-62,classification_train,3,3,61,i-1,Setosa,Setosa,True,3.3311272198334336,na,na
id-62,classification_train,3,3,62,i-15,Versicolor,Versicolor,True,1.005105037242174,na,na
id-62,classification_train,3,3,63,i-0,Setosa,Setosa,True,2.457794054411352,na,na
id-62,classification_train,3,4,64,i-5,Setosa,Versicolor,False,3.5205959454178815,na,na
id-62,classification_train,3,4,65,i-8,Versicolor,Versicolor,True,0.3766249548643827,na,na
id-62,classification_train,3,4,66,i-7,Setosa,Versicolor,False,0.7632964365184307,na,na
id-62,classification_train,3,4,67,i-13,Versicolor,Setosa,False,0.00017678923904895782,na,na
id-62,classification_train,3,4,68,i-15,Versicolor,Versicolor,True,1.0936115523800254,na,na
id-62,classification_train,3,4,69,i-3,Setosa,Versicolor,False,0.5220049619674683,na,na
id-62,classification_train,3,4,70,i-2,Setosa,Setosa,True,0.5382559970021248,na,na
id-62,classification_train,3,4,71,i-9,Versicolor,Versicolor,True,1.4047331176698208,na,na
id-62,classification_train,3,4,72,i-1,Setosa,Setosa,True,0.3322551613673568,na,na
id-62,classification_train,3,4,73,i-10,Versicolor,Versicolor,True,0.5826886920258403,na,na
id-62,classification_train,3,4,74,i-0,Setosa,Setosa,True,0.6293736305087805,na,na
id-62,classification_train,3,4,75,i-4,Setosa,Versicolor,False,0.375469533726573,na,na
id-62,classification_train,3,4,76,i-11,Versicolor,Setosa,False,0.9245772128924729,na,na
id-62,classification_train,3,4,77,i-12,Versicolor,Setosa,False,0.11166557297110558,na,na
id-62,classification_train,3,4,78,i-14,Versicolor,Setosa,False,2.680004211142659,na,na
id-62,classification_train,3,4,79,i-6,Setosa,Versicolor,False,8.684098835103214,na,na
id-62,classification_test_gen,3,0,0,g-9,gen,Setosa,gen,31.344508576206866,na,na
id-62,classification_test_gen,3,0,1,i-9,Versicolor,Versicolor,gen,0.1771010933443904,na,na
id-62,classification_test_gen,3,0,2,i-0,Setosa,Versicolor,gen,0.3830628637224436,na,na
id-62,classification_test_gen,3,0,3,i-8,Versicolor,Versicolor,gen,3.4624630780890584,na,na
id-62,classification_test_gen,3,0,4,g-6,gen,Versicolor,gen,0.3053517481312156,na,na
id-62,classification_test_gen,3,0,5,g-12,gen,Setosa,gen,0.00017645768821239471,na,na
id-62,classification_test_gen,3,0,6,i-13,Versicolor,Versicolor,gen,3.204509714618325,na,na
id-62,classification_test_gen,3,0,7,i-2,Setosa,Versicolor,gen,0.4245023913681507,na,na
id-62,classification_test_gen,3,0,8,g-0,gen,Versicolor,gen,0.7652378072962165,na,na
id-62,classification_test_gen,3,0,9,i-3,Setosa,Setosa,gen,1.7831484768539667,na,na
id-62,classification_test_gen,3,0,10,i-5,Setosa,Versicolor,gen,0.0002476377412676811,na,na
id-62,classification_test_gen,3,0,11,i-10,Versicolor,Setosa,gen,0.5290632890537381,na,na
id-62,classification_test_gen,3,0,12,g-13,gen,Versicolor,gen,0.484726270660758,na,na
id-62,classification_test_gen,3,0,13,g-7,gen,Setosa,gen,0.2590283351019025,na,na
id-62,classification_test_gen,3,0,14,i-11,Versicolor,Versicolor,gen,0.4034810261800885,na,na
id-62,classification_test_gen,3,0,15,g-3,gen,Setosa,gen,0.416988187469542,na,na
id-62,classification_test_gen,3,0,16,g-10,gen,Setosa,gen,0.3369731837883592,na,na
id-62,classification_test_gen,3,0,17,g-11,gen,Setosa,gen,0.2033211877569556,na,na
id-62,classification_test_gen,3,0,18,i-14,Versicolor,Setosa,gen,0.21770832128822806,na,na
id-62,classification_test_gen,3,0,19,g-2,gen,Setosa,gen,0.6888575777411461,na,na
id-62,classification_test_gen,3,0,20,g-4,gen,Versicolor,gen,0.18328805454075334,na,na
id-62,classification_test_gen,3,0,21,g-8,gen,Versicolor,gen,0.4373166309669614,na,na
id-62,classification_test_gen,3,0,22,i-4,Setosa,Versicolor,gen,1.8500618766993284,na,na
id-62,classification_test_gen,3,0,23,i-7,Setosa,Versicolor,gen,0.000252935104072094,na,na
id-62,classification_test_gen,3,0,24,i-1,Setosa,Setosa,gen,0.6047833729535341,na,na
id-62,classification_test_gen,3,0,25,i-6,Setosa,Versicolor,gen,1.1819677632302046,na,na
id-62,classification_test_gen,3,0,26,g-1,gen,Versicolor,gen,0.061541522853076465,na,na
id-62,classification_test_gen,3,0,27,i-12,Versicolor,Setosa,gen,0.06583180651068687,na,na
id-62,classification_test_gen,3,0,28,i-15,Versicolor,Versicolor,gen,0.022705166600644592,na,na
id-62,classification_test_gen,3,0,29,g-5,gen,Versicolor,gen,0.18515228666365147,na,na
id-55,classification_train,1,0,0,i-13,Versicolor,Versicolor,True,4.926452238112689,na,na
id-55,classification_train,1,0,1,i-7,Setosa,Versicolor,False,1.6716013462282715,na,na
id-55,classification_train,1,0,2,i-4,Setosa,Versicolor,False,5.700675742700696,na,na
id-55,classification_train,1,0,3,i-14,Versicolor,Setosa,False,1.3262400897219777,na,na
id-55,classification_train,1,0,4,i-5,Setosa,Setosa,True,1.7117983051575718,na,na
id-55,classification_train,1,0,5,i-11,Versicolor,Versicolor,True,0.7922220197506249,na,na
id-55,classification_train,1,0,6,i-6,Setosa,Setosa,True,0.00017745280638337135,na,na
id-55,classification_train,1,0,7,i-10,Versicolor,Versicolor,True,0.1538251438178122,na,na
id-55,classification_train,1,0,8,i-2,Setosa,Setosa,True,2.4349171514622867,na,na
id-55,classification_train,1,0,9,i-3,Setosa,Versicolor,False,2.5457054348662496,na,na
id-55,classification_train,1,0,10,i-9,Versicolor,Versicolor,True,0.04398570209741592,na,na
id-55,classification_train,1,0,11,i-0,Setosa,Setosa,True,0.7255313391797245,na,na
id-55,classification_train,1,0,12,i-15,Versicolor,Versicolor,True,0.34116000309586525,na,na
id-55,classification_train,1,0,13,i-8,Versicolor,Setosa,False,0.16541881626471874,na,na
id-55,classification_train,1,0,14,i-12,Versicolor,Setosa,False,1.6633130577392876,na,na
id-55,classification_train,1,0,15,i-1,Setosa,Versicolor,False,0.0002582333981990814,na,na
id-55,classification_train,1,1,16,i-3,Setosa,Setosa,True,0.7107666973024607,na,na
id-55,classification_train,1,1,17,i-14,Versicolor,Setosa,False,0.00018175644800066948,na,na
id-55,classification_train,1,1,18,i-2,Setosa,Setosa,True,1.543101915623993,na,na
id-55,classification_train,1,1,19,i-7,Setosa,Versicolor,False,0.2107509719207883,na,na
id-55,classification_train,1,1,20,i-12,Versicolor,Setosa,False,4.215387579984963,na,na
id-55,classification_train,1,1,21,i-13,Versicolor,Versicolor,True,1.062682439107448,na,na
id-55,classification_train,1,1,22,i-6,Setosa,Setosa,True,1.0177386263385415,na,na
id-55,classification_train,1,1,23,i-4,Setosa,Versicolor,False,2.7345304312184453,na,na
id-55,classification_train,1,1,24,i-10,Versicolor,Versicolor,True,2.5292659197002654,na,na
id-55,classification_train,1,1,25,i-8,Versicolor,Versicolor,True,0.31635241117328405,na,na
id-55,classification_train,1,1,26,i-9,Versicolor,Versicolor,True,0.842041140422225,na,na
id-55,classification_train,1,1,27,i-11,Versicolor,Versicolor,True,0.7324529788456857,na,na
id-55,classification_train,1,1,28,i-15,Versicolor,Setosa,False,0.00018175644800066948,na,na
id-55,classification_train,1,1,29,i-5,Setosa,Setosa,True,0.7422638502903283,na,na
id-55,classification_train,1,1,30,i-0,Setosa,Versicolor,False,0.0527222566306591,na,na
id-55,classification_train,1,1,31,i-1,Setosa,Setosa,True,0.3702108934521675,na,na
id-55,classification_train,1,2,32,i-12,Versicolor,Versicolor,True,0.7271042438223958,na,na
id-55,classification_train,1,2,33,i-14,Versicolor,Versicolor,True,1.005407334305346,na,na
id-55,classification_train,1,2,34,i-3,Setosa,Versicolor,False,0.5414250562898815,na,na
id-55,classification_train,1,2,35,i-9,Versicolor,Versicolor,True,0.8625620631501079,na,na
id-55,classification_train,1,2,36,i-11,Versicolor,Versicolor,True,0.710875618737191,na,na
id-55,classification_train,1,2,37,i-8,Versicolor,Versicolor,True,0.2896597185172141,na,na
id-55,classification_train,1,2,38,i-15,Versicolor,Setosa,False,0.0824071429669857,na,na
id-55,classification_train,1,2,39,i-10,Versicolor,Versicolor,True,1.7420413722284138,na,na
id-55,classification_train,1,2,40,i-2,Setosa,Versicolor,False,0.2712589558213949,na,na
id-55,classification_train,1,2,41,i-4,Setosa,Versicolor,False,0.5679796934127808,na,na
id-55,classification_train,1,2,42,i-5,Setosa,Setosa,True,0.7598703801631927,na,na
id-55,classification_train,1,2,43,i-13,Versicolor,Versicolor,True,0.3850675728172064,na,na
id-55,classification_train,1,2,44,i-0,Setosa,Setosa,True,0.010983845219016077,na,na
id-55,classification_train,1,2,45,i-1,Setosa,Versicolor,False,2.2249700133688752,na,na
id-55,classification_train,1,2,46,i-6,Setosa,Setosa,True,1.5536504061892629,na,na
id-55,classification_train,1,2,47,i-7,Setosa,Setosa,True,0.00017910776659846306,na,na
id-55,classification_train,1,3,48,i-2,Setosa,Versicolor,False,1.2548585063777864,na,na
id-55,classification_train,1,3,49,i-13,Versicolor,Versicolor,True,0.602060170378536,na,na
id-55,classification_train,1,3,50,i-7,Setosa,Versicolor,False,4.812423130031675,na,na
id-55,classification_train,1,3,51,i-11,Versicolor,Versicolor,True,0.6363482270389795,na,na
id-55,classification_train,1,3,52,i-5,Setosa,Setosa,True,1.4483396438881757,na,na
id-55,classification_train,1,3,53,i-0,Setosa,Setosa,True,0.6774079487659037,na,na
id-55,classification_train,1,3,54,i-12,Versicolor,Versicolor,True,0.5422682864591479,na,na
id-55,classification_train,1,3,55,i-4,Setosa,Versicolor,False,2.0969777791760857,na,na
id-55,classification_train,1,3,56,i-3,Setosa,Setosa,True,1.033324317075312,na,na
id-55,classification_train,1,3,57,i-9,Versicolor,Versicolor,True,0.2677675122395158,na,na
id-55,classification_train,1,3,58,i-6,Setosa,Setosa,True,0.3936501811258495,na,na
id-55,classification_train,1,3,59,i-8,Versicolor,Setosa,False,0.0001827497035264969,na,na
id-55,classification_train,1,3,60,i-1,Setosa,Versicolor,False,0.09923235280439258,na,na
id-55,classification_train,1,3,61,i-14,Versicolor,Setosa,False,1.0771411741152406,na,na
id-55,classification_train,1,3,62,i-15,Versicolor,Versicolor,True,0.9055793904699384,na,na
id-55,classification_train,1,3,63,i-10,Versicolor,Setosa,False,0.19947214517742395,na,na
id-55,classification_train,1,4,64,i-15,Versicolor,Versicolor,True,0.5823467229492962,na,na
id-55,classification_train,1,4,65,i-9,Versicolor,Setosa,False,0.5386480572633445,na,na
id-55,classification_train,1,4,66,i-7,Setosa,Setosa,True,0.031390880234539516,na,na
id-55,classification_train,1,4,67,i-10,Versicolor,Versicolor,True,1.548184803687036,na,na
id-55,classification_train,1,4,68,i-4,Setosa,Versicolor,False,0.7045939336530864,na,na
id-55,classification_train,1,4,69,i-5,Setosa,Setosa,True,1.0193194765597582,na,na
id-55,classification_train,1,4,70,i-3,Setosa,Setosa,True,0.577634631190449,na,na
id-55,classification_train,1,4,71,i-0,Setosa,Versicolor,False,0.6028666519559921,na,na
id-55,classification_train,1,4,72,i-1,Setosa,Setosa,True,1.7243931274861095,na,na
id-55,classification_train,1,4,73,i-13,Versicolor,Versicolor,True,0.10887636477127673,na,na
id-55,classification_train,1,4,74,i-12,Versicolor,Setosa,False,1.462761961389333,na,na
id-55,classification_train,1,4,75,i-11,Versicolor,Setosa,False,0.6302737900987267,na,na
id-55,classification_train,1,4,76,i-6,Setosa,Setosa,True,0.8402576767839491,na,na
id-55,classification_train,1,4,77,i-14,Versicolor,Versicolor,True,0.5610885117202997,na,na
id-55,classification_train,1,4,78,i-8,Versicolor,Versicolor,True,0.21187825873494148,na,na
id-55,classification_train,1,4,79,i-2,Setosa,Setosa,True,0.00017910776659846306,na,na
id-55,classification_test_gen,1,0,0,i-7,Setosa,Setosa,gen,1.4240746730938554,na,na
id-55,classification_test_gen,1,0,1,g-13,gen,Setosa,gen,0.00018010102212429047,na,na
id-55,classification_test_gen,1,0,2,g-8,gen,Versicolor,gen,0.000257240142673254,na,na
id-55,classification_test_gen,1,0,3,i-1,Setosa,Versicolor,gen,0.31092157075181603,na,na
id-55,classification_test_gen,1,0,4,i-14,Versicolor,Versicolor,gen,0.000252273865044117,na,na
id-55,classification_test_gen,1,0,5,i-11,Versicolor,Setosa,gen,1.8599542398005724,na,na
id-55,classification_test_gen,1,0,6,g-11,gen,Versicolor,gen,1.2091611828655005,na,na
id-55,classification_test_gen,1,0,7,g-1,gen,Versicolor,gen,1.2754933163523674,na,na
id-55,classification_test_gen,1,0,8,i-10,Versicolor,Versicolor,gen,0.29625856690108776,na,na
id-55,classification_test_gen,1,0,9,i-6,Setosa,Versicolor,gen,0.02184122148901224,na,na
id-55,classification_test_gen,1,0,10,i-2,Setosa,Versicolor,gen,0.6449814881198108,na,na
id-55,classification_test_gen,1,0,11,g-0,gen,Setosa,gen,1.7256611180491743,na,na
id-55,classification_test_gen,1,0,12,g-4,gen,Versicolor,gen,0.1753280139528215,na,na
id-55,classification_test_gen,1,0,13,g-9,gen,Versicolor,gen,0.4610460358671844,na,na
id-55,classification_test_gen,1,0,14,g-5,gen,Setosa,gen,0.2660419852472842,na,na
id-55,classification_test_gen,1,0,15,i-9,Versicolor,Versicolor,gen,0.8108055316843092,na,na
id-55,classification_test_gen,1,0,16,i-4,Setosa,Versicolor,gen,0.7444518785923719,na,na
id-55,classification_test_gen,1,0,17,g-10,gen,Versicolor,gen,0.4380321712233126,na,na
id-55,classification_test_gen,1,0,18,i-0,Setosa,Versicolor,gen,0.6247962689958513,na,na
id-55,classification_test_gen,1,0,19,i-5,Setosa,Setosa,gen,1.7785876435227692,na,na
id-55,classification_test_gen,1,0,20,i-15,Versicolor,Versicolor,gen,0.17592989606782794,na,na
id-55,classification_test_gen,1,0,21,i-3,Setosa,Versicolor,gen,0.00025094952434301376,na,na
id-55,classification_test_gen,1,0,22,g-2,gen,Versicolor,gen,0.3198587531223893,na,na
id-55,classification_test_gen,1,0,23,g-7,gen,Setosa,gen,0.00017910776659846306,na,na
id-55,classification_test_gen,1,0,24,i-12,Versicolor,Versicolor,gen,0.34383039781823754,na,na
id-55,classification_test_gen,1,0,25,i-13,Versicolor,Versicolor,gen,0.22255387855693695,na,na
id-55,classification_test_gen,1,0,26,g-12,gen,Setosa,gen,2.0491728759370744,na,na
id-55,classification_test_gen,1,0,27,i-8,Versicolor,Setosa,gen,0.4483730820938945,na,na
id-55,classification_test_gen,1,0,28,g-6,gen,Setosa,gen,2.3987314137630165,na,na
id-55,classification_test_gen,1,0,29,g-3,gen,Setosa,gen,1.8730595684610307,na,na
id-3,classification_train,3,0,0,i-9,Versicolor,Versicolor,True,5.710450527258217,na,na
id-3,classification_train,3,0,1,i-5,Setosa,Versicolor,False,1.6188069167546928,na,na
id-3,classification_train,3,0,2,i-13,Versicolor,Setosa,False,3.1115000792779033,na,na
id-3,classification_train,3,0,3,i-7,Setosa,Versicolor,False,2.9798925817012787,na,na
id-3,classification_train,3,0,4,i-0,Setosa,Setosa,True,2.2117312639020383,na,na
id-3,classification_train,3,0,5,i-10,Versicolor,Versicolor,True,0.4570315051823854,na,na
id-3,classification_train,3,0,6,i-11,Versicolor,Versicolor,True,0.3544914512895048,na,na
id-3,classification_train,3,0,7,i-8,Versicolor,Versicolor,True,1.4149335529655218,na,na
id-3,classification_train,3,0,8,i-4,Setosa,Setosa,True,2.9926873692311347,na,na
id-3,classification_train,3,0,9,i-1,Setosa,Setosa,True,0.10227652313187717,na,na
id-3,classification_train,3,0,10,i-2,Setosa,Setosa,True,0.00017778389155864716,na,na
id-3,classification_train,3,0,11,i-12,Versicolor,Setosa,False,0.2658198387362063,na,na
id-3,classification_train,3,0,12,i-3,Setosa,Versicolor,False,1.3965675523504617,na,na
id-3,classification_train,3,0,13,i-6,Setosa,Setosa,True,2.7207861412316556,na,na
id-3,classification_train,3,0,14,i-15,Versicolor,Setosa,False,0.00017844559624791145,na,na
id-3,classification_train,3,0,15,i-14,Versicolor,Versicolor,True,1.2347517502494156,na,na
id-3,classification_train,3,1,16,i-6,Setosa,Versicolor,False,1.2383488048799336,na,na
id-3,classification_train,3,1,17,i-14,Versicolor,Setosa,False,7.194513076450676,na,na
id-3,classification_train,3,1,18,i-4,Setosa,Versicolor,False,0.5221943059004843,na,na
id-3,classification_train,3,1,19,i-1,Setosa,Setosa,True,4.2579639251343915,na,na
id-3,classification_train,3,1,20,i-0,Setosa,Setosa,True,0.0828216397203505,na,na
id-3,classification_train,3,1,21,i-2,Setosa,Versicolor,False,2.3812059946358204,na,na
id-3,classification_train,3,1,22,i-11,Versicolor,Versicolor,True,0.000253929290920496,na,na
id-3,classification_train,3,1,23,i-10,Versicolor,Versicolor,True,4.861415243241937,na,na
id-3,classification_train,3,1,24,i-5,Setosa,Versicolor,False,6.919726259540767,na,na
id-3,classification_train,3,1,25,i-3,Setosa,Setosa,True,0.4446035409346223,na,na
id-3,classification_train,3,1,26,i-8,Versicolor,Versicolor,True,1.4489113986492157,na,na
id-3,classification_train,3,1,27,i-13,Versicolor,Setosa,False,3.953137316741049,na,na
id-3,classification_train,3,1,28,i-15,Versicolor,Setosa,False,0.2724577533081174,na,na
id-3,classification_train,3,1,29,i-12,Versicolor,Setosa,False,1.7855218639597297,na,na
id-3,classification_train,3,1,30,i-7,Setosa,Versicolor,False,1.097123779822141,na,na
id-3,classification_train,3,1,31,i-9,Versicolor,Versicolor,True,0.6907585994340479,na,na
id-3,classification_train,3,2,32,i-6,Setosa,Setosa,True,1.4922799891792238,na,na
id-3,classification_train,3,2,33,i-7,Setosa,Setosa,True,0.8437650115229189,na,na
id-3,classification_train,3,2,34,i-9,Versicolor,Versicolor,True,0.2514461879618466,na,na
id-3,classification_train,3,2,35,i-15,Versicolor,Setosa,False,2.8677194407209754,na,na
id-3,classification_train,3,2,36,i-1,Setosa,Versicolor,False,2.706098968628794,na,na
id-3,classification_train,3,2,37,i-4,Setosa,Versicolor,False,8.458770936354995,na,na
id-3,classification_train,3,2,38,i-14,Versicolor,Setosa,False,7.624620471615344,na,na
id-3,classification_train,3,2,39,i-13,Versicolor,Versicolor,True,3.7266682269982994,na,na
id-3,classification_train,3,2,40,i-12,Versicolor,Setosa,False,4.200894744601102,na,na
id-3,classification_train,3,2,41,i-0,Setosa,Setosa,True,1.278930464759469,na,na
id-3,classification_train,3,2,42,i-8,Versicolor,Versicolor,True,0.6818085056729615,na,na
id-3,classification_train,3,2,43,i-11,Versicolor,Versicolor,True,0.00026353029534220695,na,na
id-3,classification_train,3,2,44,i-10,Versicolor,Versicolor,True,0.6673252712935209,na,na
id-3,classification_train,3,2,45,i-3,Setosa,Setosa,True,0.443620930891484,na,na
id-3,classification_train,3,2,46,i-2,Setosa,Setosa,True,1.63512757839635,na,na
id-3,classification_train,3,2,47,i-5,Setosa,Setosa,True,16.753531751222912,na,na
id-3,classification_train,3,3,48,i-12,Versicolor,Setosa,False,0.08773204125463963,na,na
id-3,classification_train,3,3,49,i-4,Setosa,Versicolor,False,1.0178925730288029,na,na
id-3,classification_train,3,3,50,i-14,Versicolor,Versicolor,True,2.9788824929855764,na,na
id-3,classification_train,3,3,51,i-3,Setosa,Versicolor,False,0.2185088894329965,na,na
id-3,classification_train,3,3,52,i-15,Versicolor,Setosa,False,3.425957788247615,na,na
id-3,classification_train,3,3,53,i-11,Versicolor,Versicolor,True,1.4760338179767132,na,na
id-3,classification_train,3,3,54,i-9,Versicolor,Versicolor,True,1.2755472804419696,na,na
id-3,classification_train,3,3,55,i-0,Setosa,Versicolor,False,3.3718208773061638,na,na
id-3,classification_train,3,3,56,i-6,Setosa,Versicolor,False,1.1062331176362932,na,na
id-3,classification_train,3,3,57,i-5,Setosa,Versicolor,False,1.4161826726049185,na,na
id-3,classification_train,3,3,58,i-13,Versicolor,Setosa,False,3.9875971972942352,na,na
id-3,classification_train,3,3,59,i-7,Setosa,Setosa,True,6.216276497580111,na,na
id-3,classification_train,3,3,60,i-2,Setosa,Setosa,True,0.5739693767391145,na,na
id-3,classification_train,3,3,61,i-1,Setosa,Setosa,True,0.018326603341847655,na,na
id-3,classification_train,3,3,62,i-8,Versicolor,Versicolor,True,0.0002562464214861393,na,na
id-3,classification_train,3,3,63,i-10,Versicolor,Versicolor,True,0.9827165924943984,na,na
id-3,classification_train,3,4,64,i-0,Setosa,Setosa,True,2.482592606917024,na,na
id-3,classification_train,3,4,65,i-10,Versicolor,Versicolor,True,1.6758499429561198,na,na
id-3,classification_train,3,4,66,i-7,Setosa,Setosa,True,4.360517221037298,na,na
id-3,classification_train,3,4,67,i-4,Setosa,Versicolor,False,0.777737129945308,na,na
id-3,classification_train,3,4,68,i-3,Setosa,Versicolor,False,2.4432534454390407,na,na
id-3,classification_train,3,4,69,i-8,Versicolor,Versicolor,True,8.508699971716851,na,na
id-3,classification_train,3,4,70,i-2,Setosa,Versicolor,False,3.531124204397201,na,na
id-3,classification_train,3,4,71,i-13,Versicolor,Setosa,False,0.19949267152696848,na,na
id-3,classification_train,3,4,72,i-1,Setosa,Setosa,True,0.00017844559624791145,na,na
id-3,classification_train,3,4,73,i-6,Setosa,Setosa,True,4.528529624454676,na,na
id-3,classification_train,3,4,74,i-12,Versicolor,Setosa,False,0.8305673152208328,na,na
id-3,classification_train,3,4,75,i-5,Setosa,Versicolor,False,0.9093992537818848,na,na
id-3,classification_train,3,4,76,i-15,Versicolor,Versicolor,True,0.8205253588967025,na,na
id-3,classification_train,3,4,77,i-9,Versicolor,Versicolor,True,0.000252273865044117,na,na
id-3,classification_train,3,4,78,i-14,Versicolor,Setosa,False,1.389914077706635,na,na
id-3,classification_train,3,4,79,i-11,Versicolor,Versicolor,True,0.6250899261794984,na,na
id-3,classification_test_gen,3,0,0,i-0,Setosa,Versicolor,gen,6.695005209185183,na,na
id-3,classification_test_gen,3,0,1,i-7,Setosa,Setosa,gen,2.5206177597865462,na,na
id-3,classification_test_gen,3,0,2,i-5,Setosa,Setosa,gen,0.00019003311172127724,na,na
id-3,classification_test_gen,3,0,3,g-7,gen,Setosa,gen,1.6776231434196234,na,na
id-3,classification_test_gen,3,0,4,g-11,gen,Versicolor,gen,3.621274366974831,na,na
id-3,classification_test_gen,3,0,5,i-10,Versicolor,Versicolor,gen,1.5732615534216166,na,na
id-3,classification_test_gen,3,0,6,g-13,gen,Setosa,gen,0.6391901150345802,na,na
id-3,classification_test_gen,3,0,7,i-3,Setosa,Setosa,gen,1.1328019909560678,na,na
id-3,classification_test_gen,3,0,8,i-2,Setosa,Setosa,gen,0.7835106258280575,na,na
id-3,classification_test_gen,3,0,9,g-2,gen,Versicolor,gen,2.029920606873929,na,na
id-3,classification_test_gen,3,0,10,i-1,Setosa,Setosa,gen,0.12383799254894255,na,na
id-3,classification_test_gen,3,0,11,g-9,gen,Setosa,gen,4.360651303548367,na,na
id-3,classification_test_gen,3,0,12,g-3,gen,Versicolor,gen,0.21022854605689645,na,na
id-3,classification_test_gen,3,0,13,g-10,gen,Setosa,gen,0.6949257529340684,na,na
id-3,classification_test_gen,3,0,14,g-6,gen,Setosa,gen,8.471929898485541,na,na
id-3,classification_test_gen,3,0,15,i-14,Versicolor,Versicolor,gen,0.8528647487983108,na,na
id-3,classification_test_gen,3,0,16,g-12,gen,Versicolor,gen,0.18017882341519,na,na
id-3,classification_test_gen,3,0,17,g-1,gen,Versicolor,gen,1.4427164532244203,na,na
id-3,classification_test_gen,3,0,18,g-4,gen,Versicolor,gen,0.25238311057910323,na,na
id-3,classification_test_gen,3,0,19,i-4,Setosa,Versicolor,gen,0.0002691582776606083,na,na
id-3,classification_test_gen,3,0,20,g-0,gen,Setosa,gen,0.5981999170035124,na,na
id-3,classification_test_gen,3,0,21,i-11,Versicolor,Versicolor,gen,1.3034864445216954,na,na
id-3,classification_test_gen,3,0,22,i-6,Setosa,Setosa,gen,2.3545579961501057,na,na
id-3,classification_test_gen,3,0,23,i-8,Versicolor,Versicolor,gen,0.00025094952434301376,na,na
id-3,classification_test_gen,3,0,24,i-9,Versicolor,Versicolor,gen,2.0979928337037563,na,na
id-3,classification_test_gen,3,0,25,i-12,Versicolor,Setosa,gen,5.2812191378325215,na,na
id-3,classification_test_gen,3,0,26,i-15,Versicolor,Versicolor,gen,0.5624909163452685,na,na
id-3,classification_test_gen,3,0,27,g-5,gen,Setosa,gen,0.9791758195497096,na,na
id-3,classification_test_gen,3,0,28,i-13,Versicolor,Versicolor,gen,0.00024995626881718636,na,na
id-3,classification_test_gen,3,0,29,g-8,gen,Versicolor,gen,0.04924802854657173,na,na
id-37,classification_train,2,0,0,i-12,Versicolor,Setosa,False,5.0163156958296895,na,na
id-37,classification_train,2,0,1,i-10,Versicolor,Versicolor,True,0.6135647851042451,na,na
id-37,classification_train,2,0,2,i-15,Versicolor,Versicolor,True,0.13873936561867595,na,na
id-37,classification_train,2,0,3,i-3,Setosa,Setosa,True,1.2526380331255496,na,na
id-37,classification_train,2,0,4,i-6,Setosa,Versicolor,False,0.03301609307527542,na,na
id-37,classification_train,2,0,5,i-4,Setosa,Setosa,True,0.9752986812964082,na,na
id-37,classification_train,2,0,6,i-0,Setosa,Setosa,True,1.298977297730744,na,na
id-37,classification_train,2,0,7,i-1,Setosa,Setosa,True,0.6696424167603254,na,na
id-37,classification_train,2,0,8,i-11,Versicolor,Versicolor,True,0.6468662586994469,na,na
id-37,classification_train,2,0,9,i-14,Versicolor,Setosa,False,2.004333680961281,na,na
id-37,classification_train,2,0,10,i-8,Versicolor,Setosa,False,4.317089700140058,na,na
id-37,classification_train,2,0,11,i-7,Setosa,Versicolor,False,0.6819548374041915,na,na
id-37,classification_train,2,0,12,i-2,Setosa,Setosa,True,2.2101477659307416,na,na
id-37,classification_train,2,0,13,i-9,Versicolor,Versicolor,True,1.9413569224998355,na,na
id-37,classification_train,2,0,14,i-13,Versicolor,Versicolor,True,1.352567283436656,na,na
id-37,classification_train,2,0,15,i-5,Setosa,Versicolor,False,0.15058829123154285,na,na
id-37,classification_train,2,1,16,i-15,Versicolor,Versicolor,True,0.6024488443508744,na,na
id-37,classification_train,2,1,17,i-12,Versicolor,Versicolor,True,0.2673394409939647,na,na
id-37,classification_train,2,1,18,i-0,Setosa,Setosa,True,0.42235047090798616,na,na
id-37,classification_train,2,1,19,i-3,Setosa,Setosa,True,0.3471513413824141,na,na
id-37,classification_train,2,1,20,i-6,Setosa,Setosa,True,0.00017679017037153244,na,na
id-37,classification_train,2,1,21,i-4,Setosa,Setosa,True,0.6002061888575554,na,na
id-37,classification_train,2,1,22,i-1,Setosa,Setosa,True,0.1850296324118972,na,na
id-37,classification_train,2,1,23,i-7,Setosa,Setosa,True,0.09584287786856294,na,na
id-37,classification_train,2,1,24,i-5,Setosa,Setosa,True,0.2982108751311898,na,na
id-37,classification_train,2,1,25,i-11,Versicolor,Versicolor,True,0.2994288741610944,na,na
id-37,classification_train,2,1,26,i-8,Versicolor,Versicolor,True,0.000247639138251543,na,na
id-37,classification_test_gen,2,0,0,i-14,Versicolor,Versicolor,gen,4.667316663544625,na,na
id-37,classification_test_gen,2,0,1,g-8,gen,Setosa,gen,0.32040931936353445,na,na
id-37,classification_test_gen,2,0,2,i-10,Versicolor,Versicolor,gen,0.03365108137950301,na,na
id-37,classification_test_gen,2,0,3,g-4,gen,Setosa,gen,2.298696883022785,na,na
id-37,classification_test_gen,2,0,4,i-13,Versicolor,Versicolor,gen,0.4067154508084059,na,na
id-37,classification_test_gen,2,0,5,i-3,Setosa,Setosa,gen,0.6430857926607132,na,na
id-37,classification_test_gen,2,0,6,i-2,Setosa,Setosa,gen,0.16380949411541226,na,na
id-37,classification_test_gen,2,0,7,g-1,gen,Setosa,gen,0.6893972475081682,na,na
id-37,classification_test_gen,2,0,8,g-9,gen,Setosa,gen,0.06898266403004527,na,na
id-37,classification_test_gen,2,0,9,g-3,gen,Setosa,gen,0.00017645908519625664,na,na
id-37,classification_test_gen,2,0,10,g-7,gen,Setosa,gen,0.5645816111937165,na,na
id-37,classification_test_gen,2,0,11,g-13,gen,Setosa,gen,2.544425525702536,na,na
id-37,classification_test_gen,2,0,12,g-11,gen,Versicolor,gen,0.4676766670309007,na,na
id-37,classification_test_gen,2,0,13,g-5,gen,Versicolor,gen,0.00024896301329135895,na,na
id-37,classification_test_gen,2,0,14,i-11,Versicolor,Versicolor,gen,4.155121937394142,na,na
id-37,classification_test_gen,2,0,15,g-0,gen,Setosa,gen,0.04830481577664614,na,na
id-37,classification_test_gen,2,0,16,i-6,Setosa,Versicolor,gen,0.0002512806095182896,na,na
id-37,classification_test_gen,2,0,17,i-1,Setosa,Setosa,gen,1.325072081759572,na,na
id-37,classification_test_gen,2,0,18,i-7,Setosa,Setosa,gen,0.2326613864861429,na,na
id-37,classification_test_gen,2,0,19,i-0,Setosa,Setosa,gen,0.08423629403114319,na,na
