,trial,block,s1,s2,connected,response,accuracy,rt,counter,id,condition
0,0,0,./static/experiments/de1b/materials/stim_files/15.png,./static/experiments/de1b/materials/stim_files/3.png,2,yes,,10289,,42,1
1,1,0,./static/experiments/de1b/materials/stim_files/15.png,./static/experiments/de1b/materials/stim_files/14.png,2,no,,1945,,42,1
2,2,0,./static/experiments/de1b/materials/stim_files/4.png,./static/experiments/de1b/materials/stim_files/14.png,2,yes,,1433,,42,1
3,3,0,./static/experiments/de1b/materials/stim_files/16.png,./static/experiments/de1b/materials/stim_files/5.png,2,no,,1634,,42,1
4,4,0,./static/experiments/de1b/materials/stim_files/10.png,./static/experiments/de1b/materials/stim_files/11.png,2,no,,1196,,42,1
5,5,0,./static/experiments/de1b/materials/stim_files/6.png,./static/experiments/de1b/materials/stim_files/15.png,2,no,,952,,42,1
6,6,0,./static/experiments/de1b/materials/stim_files/15.png,./static/experiments/de1b/materials/stim_files/11.png,2,no,,703,,42,1
7,7,0,./static/experiments/de1b/materials/stim_files/14.png,./static/experiments/de1b/materials/stim_files/9.png,2,no,,481,,42,1
8,8,0,./static/experiments/de1b/materials/stim_files/16.png,./static/experiments/de1b/materials/stim_files/6.png,2,no,,1413,,42,1
9,9,0,./static/experiments/de1b/materials/stim_files/6.png,./static/experiments/de1b/materials/stim_files/15.png,2,no,,1078,,42,1
10,10,0,./static/experiments/de1b/materials/stim_files/15.png,./static/experiments/de1b/materials/stim_files/4.png,2,no,,615,,42,1
11,11,0,./static/experiments/de1b/materials/stim_files/4.png,./static/experiments/de1b/materials/stim_files/16.png,2,no,,1281,,42,1
12,12,0,./static/experiments/de1b/materials/stim_files/11.png,./static/experiments/de1b/materials/stim_files/11.png,2,no,,777,,42,1
13,13,0,./static/experiments/de1b/materials/stim_files/2.png,./static/experiments/de1b/materials/stim_files/16.png,2,yes,,855,,42,1
14,14,0,./static/experiments/de1b/materials/stim_files/12.png,./static/experiments/de1b/materials/stim_files/9.png,2,no,,929,,42,1
15,15,0,./static/experiments/de1b/materials/stim_files/10.png,./static/experiments/de1b/materials/stim_files/14.png,2,no,,988,,42,1
16,16,0,./static/experiments/de1b/materials/stim_files/14.png,./static/experiments/de1b/materials/stim_files/6.png,2,no,,704,,42,1
17,17,0,./static/experiments/de1b/materials/stim_files/2.png,./static/experiments/de1b/materials/stim_files/16.png,2,no,,1746,,42,1
18,18,0,./static/experiments/de1b/materials/stim_files/10.png,./static/experiments/de1b/materials/stim_files/10.png,2,no,,553,,42,1
19,19,0,./static/experiments/de1b/materials/stim_files/11.png,./static/experiments/de1b/materials/stim_files/9.png,2,no,,512,,42,1
20,20,0,./static/experiments/de1b/materials/stim_files/3.png,./static/experiments/de1b/materials/stim_files/16.png,2,yes,,1771,,42,1
21,21,0,./static/experiments/de1b/materials/stim_files/13.png,./static/experiments/de1b/materials/stim_files/15.png,2,no,,713,,42,1
22,22,0,./static/experiments/de1b/materials/stim_files/10.png,./static/experiments/de1b/materials/stim_files/16.png,2,no,,538,,42,1
23,23,0,./static/experiments/de1b/materials/stim_files/16.png,./static/experiments/de1b/materials/stim_files/3.png,2,no,,1149,,42,1
24,24,0,./static/experiments/de1b/materials/stim_files/7.png,./static/experiments/de1b/materials/stim_files/13.png,2,no,,753,,42,1
25,25,0,./static/experiments/de1b/materials/stim_files/13.png,./static/experiments/de1b/materials/stim_files/6.png,2,no,,553,,42,1
26,26,0,./static/experiments/de1b/materials/stim_files/7.png,./static/experiments/de1b/materials/stim_files/15.png,2,no,,465,,42,1
27,27,0,./static/experiments/de1b/materials/stim_files/13.png,./static/experiments/de1b/materials/stim_files/10.png,2,no,,419,,42,1
28,28,0,./static/experiments/de1b/materials/stim_files/16.png,./static/experiments/de1b/materials/stim_files/9.png,2,no,,415,,42,1
29,29,0,./static/experiments/de1b/materials/stim_files/16.png,./static/experiments/de1b/materials/stim_files/11.png,2,no,,324,,42,1
30,0,0,./static/experiments/de1b/materials/stim_files/13.png,./static/experiments/de1b/materials/stim_files/15.png,2,respB,,2993,,131,1
31,1,0,./static/experiments/de1b/materials/stim_files/15.png,./static/experiments/de1b/materials/stim_files/15.png,2,respB,,3475,,131,1
32,2,0,./static/experiments/de1b/materials/stim_files/16.png,./static/experiments/de1b/materials/stim_files/5.png,2,respB,,3423,,131,1
33,3,0,./static/experiments/de1b/materials/stim_files/7.png,./static/experiments/de1b/materials/stim_files/14.png,2,respB,,7653,,131,1
34,4,0,./static/experiments/de1b/materials/stim_files/16.png,./static/experiments/de1b/materials/stim_files/2.png,2,respB,,2405,,131,1
35,5,0,./static/experiments/de1b/materials/stim_files/12.png,./static/experiments/de1b/materials/stim_files/14.png,2,respB,,1750,,131,1
36,6,0,./static/experiments/de1b/materials/stim_files/3.png,./static/experiments/de1b/materials/stim_files/16.png,2,respA,,3506,,131,1
37,7,0,./static/experiments/de1b/materials/stim_files/3.png,./static/experiments/de1b/materials/stim_files/15.png,2,respA,,3090,,131,1
38,8,0,./static/experiments/de1b/materials/stim_files/12.png,./static/experiments/de1b/materials/stim_files/15.png,2,respB,,4058,,131,1
39,9,0,./static/experiments/de1b/materials/stim_files/15.png,./static/experiments/de1b/materials/stim_files/5.png,2,respB,,2002,,131,1
40,10,0,./static/experiments/de1b/materials/stim_files/14.png,./static/experiments/de1b/materials/stim_files/8.png,2,respB,,2131,,131,1
41,11,0,./static/experiments/de1b/materials/stim_files/3.png,./static/experiments/de1b/materials/stim_files/16.png,2,respB,,898,,131,1
42,12,0,./static/experiments/de1b/materials/stim_files/6.png,./static/experiments/de1b/materials/stim_files/14.png,2,respB,,4749,,131,1
43,13,0,./static/experiments/de1b/materials/stim_files/16.png,./static/experiments/de1b/materials/stim_files/2.png,2,respB,,1570,,131,1
44,14,0,./static/experiments/de1b/materials/stim_files/9.png,./static/experiments/de1b/materials/stim_files/9.png,2,respB,,1398,,131,1
45,15,0,./static/experiments/de1b/materials/stim_files/14.png,./static/experiments/de1b/materials/stim_files/9.png,2,respB,,1151,,131,1
46,16,0,./static/experiments/de1b/materials/stim_files/12.png,./static/experiments/de1b/materials/stim_files/7.png,2,respB,,803,,131,1
47,17,0,./static/experiments/de1b/materials/stim_files/15.png,./static/experiments/de1b/materials/stim_files/5.png,2,respB,,1241,,131,1
48,18,0,./static/experiments/de1b/materials/stim_files/7.png,./static/experiments/de1b/materials/stim_files/11.png,2,respB,,5722,,131,1
49,19,0,./static/experiments/de1b/materials/stim_files/5.png,./static/experiments/de1b/materials/stim_files/16.png,2,respA,,2242,,131,1
50,20,0,./static/experiments/de1b/materials/stim_files/9.png,./static/experiments/de1b/materials/stim_files/13.png,2,respB,,1257,,131,1
51,21,0,./static/experiments/de1b/materials/stim_files/7.png,./static/experiments/de1b/materials/stim_files/16.png,2,respA,,3486,,131,1
52,22,0,./static/experiments/de1b/materials/stim_files/4.png,./static/experiments/de1b/materials/stim_files/16.png,2,respA,,749,,131,1
53,23,0,./static/experiments/de1b/materials/stim_files/12.png,./static/experiments/de1b/materials/stim_files/9.png,2,respB,,1060,,131,1
54,24,0,./static/experiments/de1b/materials/stim_files/16.png,./static/experiments/de1b/materials/stim_files/9.png,2,respB,,4039,,131,1
55,25,0,./static/experiments/de1b/materials/stim_files/14.png,./static/experiments/de1b/materials/stim_files/5.png,2,respB,,617,,131,1
56,26,0,./static/experiments/de1b/materials/stim_files/6.png,./static/experiments/de1b/materials/stim_files/12.png,2,respB,,1096,,131,1
57,27,0,./static/experiments/de1b/materials/stim_files/9.png,./static/experiments/de1b/materials/stim_files/10.png,2,respB,,506,,131,1
58,28,0,./static/experiments/de1b/materials/stim_files/13.png,./static/experiments/de1b/materials/stim_files/5.png,2,respB,,668,,131,1
59,29,0,./static/experiments/de1b/materials/stim_files/12.png,./static/experiments/de1b/materials/stim_files/11.png,2,respB,,442,,131,1
60,0,1,./static/experiments/de1b/materials/stim_files/9.png,./static/experiments/de1b/materials/stim_files/10.png,2,respB,,364,,131,1
61,1,1,./static/experiments/de1b/materials/stim_files/6.png,./static/experiments/de1b/materials/stim_files/14.png,2,respB,,498,,131,1
62,2,1,./static/experiments/de1b/materials/stim_files/15.png,./static/experiments/de1b/materials/stim_files/15.png,2,respB,,332,,131,1
63,3,1,./static/experiments/de1b/materials/stim_files/13.png,./static/experiments/de1b/materials/stim_files/5.png,2,respB,,577,,131,1
64,4,1,./static/experiments/de1b/materials/stim_files/9.png,./static/experiments/de1b/materials/stim_files/14.png,2,respB,,435,,131,1
65,5,1,./static/experiments/de1b/materials/stim_files/8.png,./static/experiments/de1b/materials/stim_files/14.png,2,respB,,440,,131,1
66,6,1,./static/experiments/de1b/materials/stim_files/7.png,./static/experiments/de1b/materials/stim_files/11.png,2,respB,,3958,,131,1
67,7,1,./static/experiments/de1b/materials/stim_files/3.png,./static/experiments/de1b/materials/stim_files/15.png,2,respA,,1209,,131,1
68,8,1,./static/experiments/de1b/materials/stim_files/15.png,./static/experiments/de1b/materials/stim_files/5.png,2,respB,,1207,,131,1
69,9,1,./static/experiments/de1b/materials/stim_files/9.png,./static/experiments/de1b/materials/stim_files/9.png,2,respB,,713,,131,1
70,10,1,./static/experiments/de1b/materials/stim_files/15.png,./static/experiments/de1b/materials/stim_files/13.png,2,respB,,619,,131,1
71,11,1,./static/experiments/de1b/materials/stim_files/13.png,./static/experiments/de1b/materials/stim_files/9.png,2,respB,,456,,131,1
72,12,1,./static/experiments/de1b/materials/stim_files/16.png,./static/experiments/de1b/materials/stim_files/4.png,2,respB,,430,,131,1
73,13,1,./static/experiments/de1b/materials/stim_files/12.png,./static/experiments/de1b/materials/stim_files/6.png,2,respB,,743,,131,1
74,14,1,./static/experiments/de1b/materials/stim_files/16.png,./static/experiments/de1b/materials/stim_files/2.png,2,respB,,419,,131,1
75,15,1,./static/experiments/de1b/materials/stim_files/12.png,./static/experiments/de1b/materials/stim_files/11.png,2,respB,,5120,,131,1
76,16,1,./static/experiments/de1b/materials/stim_files/15.png,./static/experiments/de1b/materials/stim_files/5.png,2,respB,,446,,131,1
77,17,1,./static/experiments/de1b/materials/stim_files/16.png,./static/experiments/de1b/materials/stim_files/5.png,2,respB,,451,,131,1
78,18,1,./static/experiments/de1b/materials/stim_files/7.png,./static/experiments/de1b/materials/stim_files/16.png,2,respB,,860,,131,1
79,19,1,./static/experiments/de1b/materials/stim_files/14.png,./static/experiments/de1b/materials/stim_files/12.png,2,respB,,497,,131,1
80,20,1,./static/experiments/de1b/materials/stim_files/16.png,./static/experiments/de1b/materials/stim_files/2.png,2,respB,,412,,131,1
81,21,1,./static/experiments/de1b/materials/stim_files/5.png,./static/experiments/de1b/materials/stim_files/14.png,2,respB,,355,,131,1
82,22,1,./static/experiments/de1b/materials/stim_files/5.png,./static/experiments/de1b/materials/stim_files/16.png,2,respA,,1961,,131,1
83,23,1,./static/experiments/de1b/materials/stim_files/3.png,./static/experiments/de1b/materials/stim_files/16.png,2,respA,,6008,,131,1
84,24,1,./static/experiments/de1b/materials/stim_files/7.png,./static/experiments/de1b/materials/stim_files/12.png,2,respB,,1096,,131,1
85,25,1,./static/experiments/de1b/materials/stim_files/16.png,./static/experiments/de1b/materials/stim_files/9.png,2,respB,,886,,131,1
86,26,1,./static/experiments/de1b/materials/stim_files/12.png,./static/experiments/de1b/materials/stim_files/15.png,2,respB,,760,,131,1
87,27,1,./static/experiments/de1b/materials/stim_files/12.png,./static/experiments/de1b/materials/stim_files/9.png,2,respB,,8124,,131,1
88,28,1,./static/experiments/de1b/materials/stim_files/3.png,./static/experiments/de1b/materials/stim_files/16.png,2,respA,,1451,,131,1
89,29,1,./static/experiments/de1b/materials/stim_files/14.png,./static/experiments/de1b/materials/stim_files/7.png,2,respB,,1306,,131,1
90,0,2,./static/experiments/de1b/materials/stim_files/15.png,./static/experiments/de1b/materials/stim_files/3.png,2,respB,,582,,131,1
91,1,2,./static/experiments/de1b/materials/stim_files/15.png,./static/experiments/de1b/materials/stim_files/15.png,2,respB,,1613,,131,1
92,2,2,./static/experiments/de1b/materials/stim_files/16.png,./static/experiments/de1b/materials/stim_files/9.png,2,respB,,692,,131,1
93,3,2,./static/experiments/de1b/materials/stim_files/5.png,./static/experiments/de1b/materials/stim_files/15.png,2,respA,,2395,,131,1
94,4,2,./static/experiments/de1b/materials/stim_files/12.png,./static/experiments/de1b/materials/stim_files/9.png,2,respB,,625,,131,1
95,5,2,./static/experiments/de1b/materials/stim_files/12.png,./static/experiments/de1b/materials/stim_files/7.png,2,respB,,588,,131,1
96,6,2,./static/experiments/de1b/materials/stim_files/12.png,./static/experiments/de1b/materials/stim_files/11.png,2,respB,,402,,131,1
97,7,2,./static/experiments/de1b/materials/stim_files/9.png,./static/experiments/de1b/materials/stim_files/14.png,2,respB,,290,,131,1
98,8,2,./static/experiments/de1b/materials/stim_files/13.png,./static/experiments/de1b/materials/stim_files/15.png,2,respB,,235,,131,1
99,9,2,./static/experiments/de1b/materials/stim_files/5.png,./static/experiments/de1b/materials/stim_files/13.png,2,respB,,353,,131,1
100,10,2,./static/experiments/de1b/materials/stim_files/14.png,./static/experiments/de1b/materials/stim_files/8.png,2,respB,,115,,131,1
101,11,2,./static/experiments/de1b/materials/stim_files/5.png,./static/experiments/de1b/materials/stim_files/15.png,2,respB,,533,,131,1
102,12,2,./static/experiments/de1b/materials/stim_files/14.png,./static/experiments/de1b/materials/stim_files/6.png,2,respB,,547,,131,1
103,13,2,./static/experiments/de1b/materials/stim_files/9.png,./static/experiments/de1b/materials/stim_files/9.png,2,respB,,630,,131,1
104,14,2,./static/experiments/de1b/materials/stim_files/3.png,./static/experiments/de1b/materials/stim_files/16.png,2,respA,,1201,,131,1
105,15,2,./static/experiments/de1b/materials/stim_files/3.png,./static/experiments/de1b/materials/stim_files/16.png,2,respA,,677,,131,1
106,16,2,./static/experiments/de1b/materials/stim_files/7.png,./static/experiments/de1b/materials/stim_files/14.png,2,respB,,705,,131,1
107,17,2,./static/experiments/de1b/materials/stim_files/16.png,./static/experiments/de1b/materials/stim_files/2.png,2,respB,,1346,,131,1
108,18,2,./static/experiments/de1b/materials/stim_files/2.png,./static/experiments/de1b/materials/stim_files/16.png,2,respB,,894,,131,1
109,19,2,./static/experiments/de1b/materials/stim_files/16.png,./static/experiments/de1b/materials/stim_files/7.png,2,respB,,3849,,131,1
110,20,2,./static/experiments/de1b/materials/stim_files/15.png,./static/experiments/de1b/materials/stim_files/12.png,2,respB,,1200,,131,1
111,21,2,./static/experiments/de1b/materials/stim_files/12.png,./static/experiments/de1b/materials/stim_files/6.png,2,respB,,633,,131,1
112,22,2,./static/experiments/de1b/materials/stim_files/4.png,./static/experiments/de1b/materials/stim_files/16.png,2,respB,,489,,131,1
113,23,2,./static/experiments/de1b/materials/stim_files/5.png,./static/experiments/de1b/materials/stim_files/16.png,2,respB,,230,,131,1
114,24,2,./static/experiments/de1b/materials/stim_files/14.png,./static/experiments/de1b/materials/stim_files/12.png,2,respB,,515,,131,1
115,25,2,./static/experiments/de1b/materials/stim_files/16.png,./static/experiments/de1b/materials/stim_files/5.png,2,respB,,491,,131,1
116,26,2,./static/experiments/de1b/materials/stim_files/11.png,./static/experiments/de1b/materials/stim_files/7.png,2,respB,,3181,,131,1
117,27,2,./static/experiments/de1b/materials/stim_files/9.png,./static/experiments/de1b/materials/stim_files/10.png,2,respB,,531,,131,1
118,28,2,./static/experiments/de1b/materials/stim_files/13.png,./static/experiments/de1b/materials/stim_files/9.png,2,respB,,469,,131,1
119,29,2,./static/experiments/de1b/materials/stim_files/5.png,./static/experiments/de1b/materials/stim_files/14.png,2,respB,,474,,131,1
120,0,3,./static/experiments/de1b/materials/stim_files/6.png,./static/experiments/de1b/materials/stim_files/14.png,2,respB,,424,,131,1
121,1,3,./static/experiments/de1b/materials/stim_files/7.png,./static/experiments/de1b/materials/stim_files/11.png,2,respB,,346,,131,1
122,2,3,./static/experiments/de1b/materials/stim_files/16.png,./static/experiments/de1b/materials/stim_files/3.png,2,respB,,4166,,131,1
123,3,3,./static/experiments/de1b/materials/stim_files/12.png,./static/experiments/de1b/materials/stim_files/15.png,2,respB,,575,,131,1
124,4,3,./static/experiments/de1b/materials/stim_files/15.png,./static/experiments/de1b/materials/stim_files/5.png,2,respB,,331,,131,1
125,5,3,./static/experiments/de1b/materials/stim_files/16.png,./static/experiments/de1b/materials/stim_files/2.png,2,respB,,947,,131,1
126,6,3,./static/experiments/de1b/materials/stim_files/7.png,./static/experiments/de1b/materials/stim_files/14.png,2,respB,,969,,131,1
127,7,3,./static/experiments/de1b/materials/stim_files/7.png,./static/experiments/de1b/materials/stim_files/16.png,2,respB,,428,,131,1
128,8,3,./static/experiments/de1b/materials/stim_files/8.png,./static/experiments/de1b/materials/stim_files/14.png,2,respB,,443,,131,1
129,9,3,./static/experiments/de1b/materials/stim_files/9.png,./static/experiments/de1b/materials/stim_files/9.png,2,respB,,303,,131,1
130,10,3,./static/experiments/de1b/materials/stim_files/15.png,./static/experiments/de1b/materials/stim_files/3.png,2,respB,,4250,,131,1
131,11,3,./static/experiments/de1b/materials/stim_files/16.png,./static/experiments/de1b/materials/stim_files/4.png,2,respB,,222,,131,1
132,12,3,./static/experiments/de1b/materials/stim_files/16.png,./static/experiments/de1b/materials/stim_files/9.png,2,respB,,222,,131,1
133,13,3,./static/experiments/de1b/materials/stim_files/10.png,./static/experiments/de1b/materials/stim_files/9.png,2,respB,,177,,131,1
134,14,3,./static/experiments/de1b/materials/stim_files/9.png,./static/experiments/de1b/materials/stim_files/13.png,2,respB,,161,,131,1
135,15,3,./static/experiments/de1b/materials/stim_files/3.png,./static/experiments/de1b/materials/stim_files/16.png,2,respB,,222,,131,1
136,16,3,./static/experiments/de1b/materials/stim_files/2.png,./static/experiments/de1b/materials/stim_files/16.png,2,respA,,1005,,131,1
137,17,3,./static/experiments/de1b/materials/stim_files/15.png,./static/experiments/de1b/materials/stim_files/13.png,2,respB,,946,,131,1
138,18,3,./static/experiments/de1b/materials/stim_files/15.png,./static/experiments/de1b/materials/stim_files/15.png,2,respB,,4227,,131,1
139,19,3,./static/experiments/de1b/materials/stim_files/15.png,./static/experiments/de1b/materials/stim_files/5.png,2,respB,,557,,131,1
140,20,3,./static/experiments/de1b/materials/stim_files/14.png,./static/experiments/de1b/materials/stim_files/5.png,2,respB,,402,,131,1
141,21,3,./static/experiments/de1b/materials/stim_files/16.png,./static/experiments/de1b/materials/stim_files/5.png,2,respB,,375,,131,1
142,22,3,./static/experiments/de1b/materials/stim_files/11.png,./static/experiments/de1b/materials/stim_files/12.png,2,respB,,202,,131,1
143,23,3,./static/experiments/de1b/materials/stim_files/12.png,./static/experiments/de1b/materials/stim_files/9.png,2,respB,,482,,131,1
144,24,3,./static/experiments/de1b/materials/stim_files/12.png,./static/experiments/de1b/materials/stim_files/7.png,2,respB,,373,,131,1
145,25,3,./static/experiments/de1b/materials/stim_files/12.png,./static/experiments/de1b/materials/stim_files/14.png,2,respB,,185,,131,1
146,26,3,./static/experiments/de1b/materials/stim_files/5.png,./static/experiments/de1b/materials/stim_files/13.png,2,respB,,149,,131,1
147,27,3,./static/experiments/de1b/materials/stim_files/16.png,./static/experiments/de1b/materials/stim_files/5.png,2,respB,,163,,131,1
148,28,3,./static/experiments/de1b/materials/stim_files/12.png,./static/experiments/de1b/materials/stim_files/6.png,2,respB,,155,,131,1
149,29,3,./static/experiments/de1b/materials/stim_files/14.png,./static/experiments/de1b/materials/stim_files/9.png,2,respB,,78,,131,1
150,0,0,./static/experiments/de1b/materials/stim_files/13.png,./static/experiments/de1b/materials/stim_files/5.png,2,respB,,5853,,117,2
151,1,0,./static/experiments/de1b/materials/stim_files/15.png,./static/experiments/de1b/materials/stim_files/8.png,2,respB,,4210,,117,2
152,2,0,./static/experiments/de1b/materials/stim_files/14.png,./static/experiments/de1b/materials/stim_files/4.png,2,respB,,5903,,117,2
153,3,0,./static/experiments/de1b/materials/stim_files/9.png,./static/experiments/de1b/materials/stim_files/12.png,2,respB,,7445,,117,2
154,4,0,./static/experiments/de1b/materials/stim_files/15.png,./static/experiments/de1b/materials/stim_files/11.png,2,respB,,1361,,117,2
155,5,0,./static/experiments/de1b/materials/stim_files/11.png,./static/experiments/de1b/materials/stim_files/11.png,2,respB,,2239,,117,2
156,6,0,./static/experiments/de1b/materials/stim_files/3.png,./static/experiments/de1b/materials/stim_files/16.png,2,respB,,1754,,117,2
157,7,0,./static/experiments/de1b/materials/stim_files/15.png,./static/experiments/de1b/materials/stim_files/3.png,2,respB,,962,,117,2
158,8,0,./static/experiments/de1b/materials/stim_files/13.png,./static/experiments/de1b/materials/stim_files/8.png,2,respB,,1046,,117,2
159,9,0,./static/experiments/de1b/materials/stim_files/13.png,./static/experiments/de1b/materials/stim_files/11.png,2,respB,,1744,,117,2
160,10,0,./static/experiments/de1b/materials/stim_files/13.png,./static/experiments/de1b/materials/stim_files/5.png,2,respB,,1452,,117,2
161,11,0,./static/experiments/de1b/materials/stim_files/14.png,./static/experiments/de1b/materials/stim_files/8.png,2,respB,,1128,,117,2
162,12,0,./static/experiments/de1b/materials/stim_files/6.png,./static/experiments/de1b/materials/stim_files/16.png,2,respB,,999,,117,2
163,13,0,./static/experiments/de1b/materials/stim_files/4.png,./static/experiments/de1b/materials/stim_files/15.png,2,respB,,1059,,117,2
164,14,0,./static/experiments/de1b/materials/stim_files/10.png,./static/experiments/de1b/materials/stim_files/15.png,2,respB,,1235,,117,2
165,15,0,./static/experiments/de1b/materials/stim_files/16.png,./static/experiments/de1b/materials/stim_files/2.png,2,respB,,1416,,117,2
166,16,0,./static/experiments/de1b/materials/stim_files/10.png,./static/experiments/de1b/materials/stim_files/12.png,2,respB,,1161,,117,2
167,17,0,./static/experiments/de1b/materials/stim_files/11.png,./static/experiments/de1b/materials/stim_files/14.png,2,respA,,1651,,117,2
168,18,0,./static/experiments/de1b/materials/stim_files/16.png,./static/experiments/de1b/materials/stim_files/2.png,2,respB,,749,,117,2
169,19,0,./static/experiments/de1b/materials/stim_files/7.png,./static/experiments/de1b/materials/stim_files/16.png,2,respB,,1677,,117,2
170,20,0,./static/experiments/de1b/materials/stim_files/5.png,./static/experiments/de1b/materials/stim_files/14.png,2,respB,,1018,,117,2
171,21,0,./static/experiments/de1b/materials/stim_files/16.png,./static/experiments/de1b/materials/stim_files/9.png,2,respB,,929,,117,2
172,22,0,./static/experiments/de1b/materials/stim_files/10.png,./static/experiments/de1b/materials/stim_files/10.png,2,respA,,1130,,117,2
173,23,0,./static/experiments/de1b/materials/stim_files/16.png,./static/experiments/de1b/materials/stim_files/3.png,2,respB,,953,,117,2
174,24,0,./static/experiments/de1b/materials/stim_files/5.png,./static/experiments/de1b/materials/stim_files/16.png,2,respB,,694,,117,2
175,25,0,./static/experiments/de1b/materials/stim_files/16.png,./static/experiments/de1b/materials/stim_files/15.png,2,respA,,909,,117,2
176,26,0,./static/experiments/de1b/materials/stim_files/10.png,./static/experiments/de1b/materials/stim_files/16.png,2,respA,,1271,,117,2
177,27,0,./static/experiments/de1b/materials/stim_files/10.png,./static/experiments/de1b/materials/stim_files/11.png,2,respA,,1169,,117,2
178,28,0,./static/experiments/de1b/materials/stim_files/16.png,./static/experiments/de1b/materials/stim_files/4.png,2,respB,,1010,,117,2
179,29,0,./static/experiments/de1b/materials/stim_files/12.png,./static/experiments/de1b/materials/stim_files/16.png,2,respA,,897,,117,2
180,0,1,./static/experiments/de1b/materials/stim_files/14.png,./static/experiments/de1b/materials/stim_files/11.png,2,respA,,1042,,117,2
181,1,1,./static/experiments/de1b/materials/stim_files/16.png,./static/experiments/de1b/materials/stim_files/6.png,2,respB,,800,,117,2
182,2,1,./static/experiments/de1b/materials/stim_files/9.png,./static/experiments/de1b/materials/stim_files/12.png,2,respA,,756,,117,2
183,3,1,./static/experiments/de1b/materials/stim_files/5.png,./static/experiments/de1b/materials/stim_files/16.png,2,respB,,712,,117,2
184,4,1,./static/experiments/de1b/materials/stim_files/11.png,./static/experiments/de1b/materials/stim_files/11.png,2,respA,,951,,117,2
185,5,1,./static/experiments/de1b/materials/stim_files/5.png,./static/experiments/de1b/materials/stim_files/13.png,2,respB,,1245,,117,2
186,6,1,./static/experiments/de1b/materials/stim_files/10.png,./static/experiments/de1b/materials/stim_files/16.png,2,respA,,2349,,117,2
187,7,1,./static/experiments/de1b/materials/stim_files/3.png,./static/experiments/de1b/materials/stim_files/16.png,2,respB,,797,,117,2
188,8,1,./static/experiments/de1b/materials/stim_files/16.png,./static/experiments/de1b/materials/stim_files/4.png,2,respB,,996,,117,2
189,9,1,./static/experiments/de1b/materials/stim_files/13.png,./static/experiments/de1b/materials/stim_files/8.png,2,respB,,876,,117,2
190,10,1,./static/experiments/de1b/materials/stim_files/16.png,./static/experiments/de1b/materials/stim_files/2.png,2,respA,,772,,117,2
191,11,1,./static/experiments/de1b/materials/stim_files/4.png,./static/experiments/de1b/materials/stim_files/15.png,2,respB,,1183,,117,2
192,12,1,./static/experiments/de1b/materials/stim_files/5.png,./static/experiments/de1b/materials/stim_files/13.png,2,respB,,802,,117,2
193,13,1,./static/experiments/de1b/materials/stim_files/10.png,./static/experiments/de1b/materials/stim_files/10.png,2,respA,,939,,117,2
194,14,1,./static/experiments/de1b/materials/stim_files/15.png,./static/experiments/de1b/materials/stim_files/16.png,2,respA,,756,,117,2
195,15,1,./static/experiments/de1b/materials/stim_files/14.png,./static/experiments/de1b/materials/stim_files/5.png,2,respB,,856,,117,2
196,16,1,./static/experiments/de1b/materials/stim_files/16.png,./static/experiments/de1b/materials/stim_files/3.png,2,respB,,708,,117,2
197,17,1,./static/experiments/de1b/materials/stim_files/16.png,./static/experiments/de1b/materials/stim_files/9.png,2,respB,,1980,,117,2
198,18,1,./static/experiments/de1b/materials/stim_files/16.png,./static/experiments/de1b/materials/stim_files/12.png,2,respA,,1324,,117,2
199,19,1,./static/experiments/de1b/materials/stim_files/15.png,./static/experiments/de1b/materials/stim_files/10.png,2,respA,,961,,117,2
200,20,1,./static/experiments/de1b/materials/stim_files/3.png,./static/experiments/de1b/materials/stim_files/15.png,2,respB,,670,,117,2
201,21,1,./static/experiments/de1b/materials/stim_files/15.png,./static/experiments/de1b/materials/stim_files/8.png,2,respB,,679,,117,2
202,22,1,./static/experiments/de1b/materials/stim_files/15.png,./static/experiments/de1b/materials/stim_files/11.png,2,respA,,939,,117,2
203,23,1,./static/experiments/de1b/materials/stim_files/8.png,./static/experiments/de1b/materials/stim_files/14.png,2,respA,,1815,,117,2
204,24,1,./static/experiments/de1b/materials/stim_files/4.png,./static/experiments/de1b/materials/stim_files/14.png,2,respB,,608,,117,2
205,25,1,./static/experiments/de1b/materials/stim_files/10.png,./static/experiments/de1b/materials/stim_files/12.png,2,respA,,739,,117,2
206,26,1,./static/experiments/de1b/materials/stim_files/16.png,./static/experiments/de1b/materials/stim_files/2.png,2,respB,,671,,117,2
207,27,1,./static/experiments/de1b/materials/stim_files/13.png,./static/experiments/de1b/materials/stim_files/11.png,2,respA,,906,,117,2
208,28,1,./static/experiments/de1b/materials/stim_files/7.png,./static/experiments/de1b/materials/stim_files/16.png,2,respB,,566,,117,2
209,29,1,./static/experiments/de1b/materials/stim_files/10.png,./static/experiments/de1b/materials/stim_files/11.png,2,respA,,946,,117,2
210,0,2,./static/experiments/de1b/materials/stim_files/10.png,./static/experiments/de1b/materials/stim_files/10.png,2,respA,,639,,117,2
211,1,2,./static/experiments/de1b/materials/stim_files/16.png,./static/experiments/de1b/materials/stim_files/2.png,2,respB,,643,,117,2
212,2,2,./static/experiments/de1b/materials/stim_files/14.png,./static/experiments/de1b/materials/stim_files/11.png,2,respA,,525,,117,2
213,3,2,./static/experiments/de1b/materials/stim_files/5.png,./static/experiments/de1b/materials/stim_files/16.png,2,respB,,666,,117,2
214,4,2,./static/experiments/de1b/materials/stim_files/11.png,./static/experiments/de1b/materials/stim_files/10.png,2,respA,,795,,117,2
215,5,2,./static/experiments/de1b/materials/stim_files/11.png,./static/experiments/de1b/materials/stim_files/11.png,2,respA,,692,,117,2
216,6,2,./static/experiments/de1b/materials/stim_files/2.png,./static/experiments/de1b/materials/stim_files/16.png,2,respB,,614,,117,2
217,7,2,./static/experiments/de1b/materials/stim_files/13.png,./static/experiments/de1b/materials/stim_files/5.png,2,respA,,512,,117,2
218,8,2,./static/experiments/de1b/materials/stim_files/12.png,./static/experiments/de1b/materials/stim_files/10.png,2,respA,,646,,117,2
219,9,2,./static/experiments/de1b/materials/stim_files/13.png,./static/experiments/de1b/materials/stim_files/11.png,2,respA,,617,,117,2
220,10,2,./static/experiments/de1b/materials/stim_files/5.png,./static/experiments/de1b/materials/stim_files/13.png,2,respB,,654,,117,2
221,11,2,./static/experiments/de1b/materials/stim_files/5.png,./static/experiments/de1b/materials/stim_files/14.png,2,respB,,647,,117,2
222,12,2,./static/experiments/de1b/materials/stim_files/4.png,./static/experiments/de1b/materials/stim_files/16.png,2,respB,,713,,117,2
223,13,2,./static/experiments/de1b/materials/stim_files/15.png,./static/experiments/de1b/materials/stim_files/8.png,2,respB,,680,,117,2
224,14,2,./static/experiments/de1b/materials/stim_files/16.png,./static/experiments/de1b/materials/stim_files/3.png,2,respB,,1091,,117,2
225,15,2,./static/experiments/de1b/materials/stim_files/9.png,./static/experiments/de1b/materials/stim_files/16.png,2,respA,,1483,,117,2
226,16,2,./static/experiments/de1b/materials/stim_files/15.png,./static/experiments/de1b/materials/stim_files/16.png,2,respA,,726,,117,2
227,17,2,./static/experiments/de1b/materials/stim_files/7.png,./static/experiments/de1b/materials/stim_files/16.png,2,respB,,737,,117,2
228,18,2,./static/experiments/de1b/materials/stim_files/16.png,./static/experiments/de1b/materials/stim_files/10.png,2,respA,,984,,117,2
229,19,2,./static/experiments/de1b/materials/stim_files/16.png,./static/experiments/de1b/materials/stim_files/3.png,2,respB,,899,,117,2
230,20,2,./static/experiments/de1b/materials/stim_files/16.png,./static/experiments/de1b/materials/stim_files/12.png,2,respA,,1101,,117,2
231,21,2,./static/experiments/de1b/materials/stim_files/15.png,./static/experiments/de1b/materials/stim_files/10.png,2,respA,,573,,117,2
232,22,2,./static/experiments/de1b/materials/stim_files/3.png,./static/experiments/de1b/materials/stim_files/15.png,2,respB,,933,,117,2
233,23,2,./static/experiments/de1b/materials/stim_files/4.png,./static/experiments/de1b/materials/stim_files/15.png,2,respB,,1073,,117,2
234,24,2,./static/experiments/de1b/materials/stim_files/14.png,./static/experiments/de1b/materials/stim_files/8.png,2,respA,,1346,,117,2
235,25,2,./static/experiments/de1b/materials/stim_files/15.png,./static/experiments/de1b/materials/stim_files/11.png,2,respA,,774,,117,2
236,26,2,./static/experiments/de1b/materials/stim_files/13.png,./static/experiments/de1b/materials/stim_files/8.png,2,respA,,1329,,117,2
237,27,2,./static/experiments/de1b/materials/stim_files/6.png,./static/experiments/de1b/materials/stim_files/16.png,2,respB,,1546,,117,2
238,28,2,./static/experiments/de1b/materials/stim_files/4.png,./static/experiments/de1b/materials/stim_files/14.png,2,respB,,2301,,117,2
239,29,2,./static/experiments/de1b/materials/stim_files/12.png,./static/experiments/de1b/materials/stim_files/9.png,2,respA,,1163,,117,2
240,0,3,./static/experiments/de1b/materials/stim_files/2.png,./static/experiments/de1b/materials/stim_files/16.png,2,respB,,704,,117,2
241,1,3,./static/experiments/de1b/materials/stim_files/6.png,./static/experiments/de1b/materials/stim_files/16.png,2,respB,,723,,117,2
242,2,3,./static/experiments/de1b/materials/stim_files/15.png,./static/experiments/de1b/materials/stim_files/8.png,2,respB,,1390,,117,2
243,3,3,./static/experiments/de1b/materials/stim_files/16.png,./static/experiments/de1b/materials/stim_files/15.png,2,respA,,672,,117,2
244,4,3,./static/experiments/de1b/materials/stim_files/15.png,./static/experiments/de1b/materials/stim_files/4.png,2,respB,,602,,117,2
245,5,3,./static/experiments/de1b/materials/stim_files/16.png,./static/experiments/de1b/materials/stim_files/2.png,2,respB,,629,,117,2
246,6,3,./static/experiments/de1b/materials/stim_files/16.png,./static/experiments/de1b/materials/stim_files/4.png,2,respB,,611,,117,2
247,7,3,./static/experiments/de1b/materials/stim_files/13.png,./static/experiments/de1b/materials/stim_files/5.png,2,respB,,644,,117,2
248,8,3,./static/experiments/de1b/materials/stim_files/10.png,./static/experiments/de1b/materials/stim_files/11.png,2,respA,,665,,117,2
249,9,3,./static/experiments/de1b/materials/stim_files/16.png,./static/experiments/de1b/materials/stim_files/9.png,2,respB,,577,,117,2
250,10,3,./static/experiments/de1b/materials/stim_files/14.png,./static/experiments/de1b/materials/stim_files/4.png,2,respB,,729,,117,2
251,11,3,./static/experiments/de1b/materials/stim_files/13.png,./static/experiments/de1b/materials/stim_files/5.png,2,respB,,593,,117,2
252,12,3,./static/experiments/de1b/materials/stim_files/11.png,./static/experiments/de1b/materials/stim_files/11.png,2,respA,,732,,117,2
253,13,3,./static/experiments/de1b/materials/stim_files/10.png,./static/experiments/de1b/materials/stim_files/12.png,2,respA,,622,,117,2
254,14,3,./static/experiments/de1b/materials/stim_files/15.png,./static/experiments/de1b/materials/stim_files/10.png,2,respA,,1494,,117,2
255,15,3,./static/experiments/de1b/materials/stim_files/3.png,./static/experiments/de1b/materials/stim_files/15.png,2,respB,,556,,117,2
256,16,3,./static/experiments/de1b/materials/stim_files/3.png,./static/experiments/de1b/materials/stim_files/16.png,2,respB,,601,,117,2
257,17,3,./static/experiments/de1b/materials/stim_files/14.png,./static/experiments/de1b/materials/stim_files/8.png,2,respA,,648,,117,2
258,18,3,./static/experiments/de1b/materials/stim_files/12.png,./static/experiments/de1b/materials/stim_files/16.png,2,respA,,812,,117,2
259,19,3,./static/experiments/de1b/materials/stim_files/13.png,./static/experiments/de1b/materials/stim_files/8.png,2,respA,,814,,117,2
260,20,3,./static/experiments/de1b/materials/stim_files/11.png,./static/experiments/de1b/materials/stim_files/14.png,2,respA,,665,,117,2
261,21,3,./static/experiments/de1b/materials/stim_files/5.png,./static/experiments/de1b/materials/stim_files/14.png,2,respB,,646,,117,2
262,22,3,./static/experiments/de1b/materials/stim_files/10.png,./static/experiments/de1b/materials/stim_files/10.png,2,respA,,728,,117,2
263,23,3,./static/experiments/de1b/materials/stim_files/10.png,./static/experiments/de1b/materials/stim_files/16.png,2,respA,,778,,117,2
264,24,3,./static/experiments/de1b/materials/stim_files/12.png,./static/experiments/de1b/materials/stim_files/9.png,2,respA,,1001,,117,2
265,25,3,./static/experiments/de1b/materials/stim_files/13.png,./static/experiments/de1b/materials/stim_files/11.png,2,respA,,587,,117,2
266,26,3,./static/experiments/de1b/materials/stim_files/7.png,./static/experiments/de1b/materials/stim_files/16.png,2,respB,,601,,117,2
267,27,3,./static/experiments/de1b/materials/stim_files/3.png,./static/experiments/de1b/materials/stim_files/16.png,2,respA,,503,,117,2
268,28,3,./static/experiments/de1b/materials/stim_files/15.png,./static/experiments/de1b/materials/stim_files/11.png,2,respA,,1408,,117,2
269,29,3,./static/experiments/de1b/materials/stim_files/16.png,./static/experiments/de1b/materials/stim_files/5.png,2,respB,,597,,117,2
270,0,0,./static/experiments/de1b/materials/stim_files/7.png,./static/experiments/de1b/materials/stim_files/14.png,2,respB,,4133,,124,2
271,1,0,./static/experiments/de1b/materials/stim_files/14.png,./static/experiments/de1b/materials/stim_files/12.png,2,respA,,2956,,124,2
272,2,0,./static/experiments/de1b/materials/stim_files/4.png,./static/experiments/de1b/materials/stim_files/16.png,2,respB,,6512,,124,2
273,3,0,./static/experiments/de1b/materials/stim_files/12.png,./static/experiments/de1b/materials/stim_files/9.png,2,respB,,2666,,124,2
274,4,0,./static/experiments/de1b/materials/stim_files/8.png,./static/experiments/de1b/materials/stim_files/12.png,2,respB,,2181,,124,2
275,5,0,./static/experiments/de1b/materials/stim_files/4.png,./static/experiments/de1b/materials/stim_files/15.png,2,respB,,1310,,124,2
276,6,0,./static/experiments/de1b/materials/stim_files/16.png,./static/experiments/de1b/materials/stim_files/6.png,2,respB,,1324,,124,2
277,7,0,./static/experiments/de1b/materials/stim_files/16.png,./static/experiments/de1b/materials/stim_files/3.png,2,respB,,1220,,124,2
278,8,0,./static/experiments/de1b/materials/stim_files/15.png,./static/experiments/de1b/materials/stim_files/8.png,2,respB,,1004,,124,2
279,9,0,./static/experiments/de1b/materials/stim_files/14.png,./static/experiments/de1b/materials/stim_files/5.png,2,respB,,811,,124,2
280,10,0,./static/experiments/de1b/materials/stim_files/11.png,./static/experiments/de1b/materials/stim_files/16.png,2,respB,,1304,,124,2
281,11,0,./static/experiments/de1b/materials/stim_files/12.png,./static/experiments/de1b/materials/stim_files/12.png,2,respB,,1727,,124,2
282,12,0,./static/experiments/de1b/materials/stim_files/3.png,./static/experiments/de1b/materials/stim_files/15.png,2,respB,,867,,124,2
283,13,0,./static/experiments/de1b/materials/stim_files/6.png,./static/experiments/de1b/materials/stim_files/14.png,2,respB,,957,,124,2
284,14,0,./static/experiments/de1b/materials/stim_files/14.png,./static/experiments/de1b/materials/stim_files/15.png,2,respA,,1745,,124,2
285,15,0,./static/experiments/de1b/materials/stim_files/5.png,./static/experiments/de1b/materials/stim_files/16.png,2,respB,,934,,124,2
286,16,0,./static/experiments/de1b/materials/stim_files/13.png,./static/experiments/de1b/materials/stim_files/8.png,2,respB,,5018,,124,2
287,17,0,./static/experiments/de1b/materials/stim_files/13.png,./static/experiments/de1b/materials/stim_files/13.png,2,respB,,1357,,124,2
288,18,0,./static/experiments/de1b/materials/stim_files/12.png,./static/experiments/de1b/materials/stim_files/15.png,2,respA,,1261,,124,2
289,19,0,./static/experiments/de1b/materials/stim_files/14.png,./static/experiments/de1b/materials/stim_files/15.png,2,respA,,1156,,124,2
290,20,0,./static/experiments/de1b/materials/stim_files/16.png,./static/experiments/de1b/materials/stim_files/7.png,2,respB,,1102,,124,2
291,21,0,./static/experiments/de1b/materials/stim_files/5.png,./static/experiments/de1b/materials/stim_files/15.png,2,respB,,807,,124,2
292,22,0,./static/experiments/de1b/materials/stim_files/10.png,./static/experiments/de1b/materials/stim_files/16.png,2,respB,,1172,,124,2
293,23,0,./static/experiments/de1b/materials/stim_files/12.png,./static/experiments/de1b/materials/stim_files/16.png,2,respA,,983,,124,2
294,24,0,./static/experiments/de1b/materials/stim_files/2.png,./static/experiments/de1b/materials/stim_files/16.png,2,respB,,804,,124,2
295,25,0,./static/experiments/de1b/materials/stim_files/7.png,./static/experiments/de1b/materials/stim_files/15.png,2,respB,,1746,,124,2
296,26,0,./static/experiments/de1b/materials/stim_files/16.png,./static/experiments/de1b/materials/stim_files/2.png,2,respB,,949,,124,2
297,27,0,./static/experiments/de1b/materials/stim_files/7.png,./static/experiments/de1b/materials/stim_files/13.png,2,respB,,1123,,124,2
298,28,0,./static/experiments/de1b/materials/stim_files/11.png,./static/experiments/de1b/materials/stim_files/9.png,2,respA,,1094,,124,2
299,29,0,./static/experiments/de1b/materials/stim_files/3.png,./static/experiments/de1b/materials/stim_files/16.png,2,respB,,676,,124,2
300,0,1,./static/experiments/de1b/materials/stim_files/9.png,./static/experiments/de1b/materials/stim_files/12.png,2,respA,,1534,,124,2
301,1,1,./static/experiments/de1b/materials/stim_files/16.png,./static/experiments/de1b/materials/stim_files/2.png,2,respB,,673,,124,2
302,2,1,./static/experiments/de1b/materials/stim_files/14.png,./static/experiments/de1b/materials/stim_files/5.png,2,respB,,1253,,124,2
303,3,1,./static/experiments/de1b/materials/stim_files/5.png,./static/experiments/de1b/materials/stim_files/15.png,2,respB,,698,,124,2
304,4,1,./static/experiments/de1b/materials/stim_files/13.png,./static/experiments/de1b/materials/stim_files/8.png,2,respB,,724,,124,2
305,5,1,./static/experiments/de1b/materials/stim_files/8.png,./static/experiments/de1b/materials/stim_files/12.png,2,respA,,1510,,124,2
306,6,1,./static/experiments/de1b/materials/stim_files/11.png,./static/experiments/de1b/materials/stim_files/16.png,2,respA,,1187,,124,2
307,7,1,./static/experiments/de1b/materials/stim_files/15.png,./static/experiments/de1b/materials/stim_files/3.png,2,respB,,674,,124,2
308,8,1,./static/experiments/de1b/materials/stim_files/4.png,./static/experiments/de1b/materials/stim_files/16.png,2,respB,,545,,124,2
309,9,1,./static/experiments/de1b/materials/stim_files/15.png,./static/experiments/de1b/materials/stim_files/7.png,2,respB,,546,,124,2
310,10,1,./static/experiments/de1b/materials/stim_files/16.png,./static/experiments/de1b/materials/stim_files/7.png,2,respB,,556,,124,2
311,11,1,./static/experiments/de1b/materials/stim_files/15.png,./static/experiments/de1b/materials/stim_files/14.png,2,respA,,853,,124,2
312,12,1,./static/experiments/de1b/materials/stim_files/13.png,./static/experiments/de1b/materials/stim_files/13.png,2,respB,,1124,,124,2
313,13,1,./static/experiments/de1b/materials/stim_files/14.png,./static/experiments/de1b/materials/stim_files/12.png,2,respA,,2977,,124,2
314,14,1,./static/experiments/de1b/materials/stim_files/3.png,./static/experiments/de1b/materials/stim_files/16.png,2,respB,,6973,,124,2
315,15,1,./static/experiments/de1b/materials/stim_files/2.png,./static/experiments/de1b/materials/stim_files/16.png,2,respB,,751,,124,2
316,16,1,./static/experiments/de1b/materials/stim_files/16.png,./static/experiments/de1b/materials/stim_files/5.png,2,respB,,1232,,124,2
317,17,1,./static/experiments/de1b/materials/stim_files/14.png,./static/experiments/de1b/materials/stim_files/6.png,2,respB,,596,,124,2
318,18,1,./static/experiments/de1b/materials/stim_files/16.png,./static/experiments/de1b/materials/stim_files/12.png,2,respB,,1096,,124,2
319,19,1,./static/experiments/de1b/materials/stim_files/7.png,./static/experiments/de1b/materials/stim_files/13.png,2,respB,,736,,124,2
320,20,1,./static/experiments/de1b/materials/stim_files/15.png,./static/experiments/de1b/materials/stim_files/4.png,2,respB,,588,,124,2
321,21,1,./static/experiments/de1b/materials/stim_files/7.png,./static/experiments/de1b/materials/stim_files/14.png,2,respB,,761,,124,2
322,22,1,./static/experiments/de1b/materials/stim_files/6.png,./static/experiments/de1b/materials/stim_files/16.png,2,respB,,543,,124,2
323,23,1,./static/experiments/de1b/materials/stim_files/12.png,./static/experiments/de1b/materials/stim_files/15.png,2,respA,,608,,124,2
324,24,1,./static/experiments/de1b/materials/stim_files/12.png,./static/experiments/de1b/materials/stim_files/12.png,2,respB,,819,,124,2
325,25,1,./static/experiments/de1b/materials/stim_files/15.png,./static/experiments/de1b/materials/stim_files/8.png,2,respB,,858,,124,2
326,26,1,./static/experiments/de1b/materials/stim_files/14.png,./static/experiments/de1b/materials/stim_files/15.png,2,respA,,615,,124,2
327,27,1,./static/experiments/de1b/materials/stim_files/3.png,./static/experiments/de1b/materials/stim_files/16.png,2,respB,,780,,124,2
328,28,1,./static/experiments/de1b/materials/stim_files/10.png,./static/experiments/de1b/materials/stim_files/16.png,2,respB,,1574,,124,2
329,29,1,./static/experiments/de1b/materials/stim_files/11.png,./static/experiments/de1b/materials/stim_files/9.png,2,respA,,1470,,124,2
330,0,2,./static/experiments/de1b/materials/stim_files/12.png,./static/experiments/de1b/materials/stim_files/12.png,2,respB,,864,,124,2
331,1,2,./static/experiments/de1b/materials/stim_files/16.png,./static/experiments/de1b/materials/stim_files/11.png,2,respB,,3065,,124,2
332,2,2,./static/experiments/de1b/materials/stim_files/3.png,./static/experiments/de1b/materials/stim_files/16.png,2,respB,,682,,124,2
333,3,2,./static/experiments/de1b/materials/stim_files/9.png,./static/experiments/de1b/materials/stim_files/11.png,2,respA,,673,,124,2
334,4,2,./static/experiments/de1b/materials/stim_files/7.png,./static/experiments/de1b/materials/stim_files/13.png,2,respB,,1183,,124,2
335,5,2,./static/experiments/de1b/materials/stim_files/16.png,./static/experiments/de1b/materials/stim_files/2.png,2,respB,,1645,,124,2
336,6,2,./static/experiments/de1b/materials/stim_files/14.png,./static/experiments/de1b/materials/stim_files/15.png,2,respA,,573,,124,2
337,7,2,./static/experiments/de1b/materials/stim_files/15.png,./static/experiments/de1b/materials/stim_files/14.png,2,respA,,1890,,124,2
338,8,2,./static/experiments/de1b/materials/stim_files/15.png,./static/experiments/de1b/materials/stim_files/4.png,2,respB,,758,,124,2
339,9,2,./static/experiments/de1b/materials/stim_files/7.png,./static/experiments/de1b/materials/stim_files/15.png,2,respB,,824,,124,2
340,10,2,./static/experiments/de1b/materials/stim_files/16.png,./static/experiments/de1b/materials/stim_files/3.png,2,respB,,822,,124,2
341,11,2,./static/experiments/de1b/materials/stim_files/13.png,./static/experiments/de1b/materials/stim_files/13.png,2,respB,,1953,,124,2
342,12,2,./static/experiments/de1b/materials/stim_files/5.png,./static/experiments/de1b/materials/stim_files/16.png,2,respB,,1090,,124,2
343,13,2,./static/experiments/de1b/materials/stim_files/15.png,./static/experiments/de1b/materials/stim_files/3.png,2,respA,,1139,,124,2
344,14,2,./static/experiments/de1b/materials/stim_files/16.png,./static/experiments/de1b/materials/stim_files/7.png,2,respB,,732,,124,2
345,15,2,./static/experiments/de1b/materials/stim_files/8.png,./static/experiments/de1b/materials/stim_files/12.png,2,respA,,2373,,124,2
346,16,2,./static/experiments/de1b/materials/stim_files/16.png,./static/experiments/de1b/materials/stim_files/2.png,2,respB,,585,,124,2
347,17,2,./static/experiments/de1b/materials/stim_files/16.png,./static/experiments/de1b/materials/stim_files/10.png,2,respB,,559,,124,2
348,18,2,./static/experiments/de1b/materials/stim_files/12.png,./static/experiments/de1b/materials/stim_files/14.png,2,respA,,693,,124,2
349,19,2,./static/experiments/de1b/materials/stim_files/5.png,./static/experiments/de1b/materials/stim_files/14.png,2,respB,,630,,124,2
350,20,2,./static/experiments/de1b/materials/stim_files/9.png,./static/experiments/de1b/materials/stim_files/12.png,2,respA,,1558,,124,2
351,21,2,./static/experiments/de1b/materials/stim_files/4.png,./static/experiments/de1b/materials/stim_files/16.png,2,respB,,522,,124,2
352,22,2,./static/experiments/de1b/materials/stim_files/13.png,./static/experiments/de1b/materials/stim_files/8.png,2,respA,,897,,124,2
353,23,2,./static/experiments/de1b/materials/stim_files/15.png,./static/experiments/de1b/materials/stim_files/8.png,2,respA,,611,,124,2
354,24,2,./static/experiments/de1b/materials/stim_files/16.png,./static/experiments/de1b/materials/stim_files/12.png,2,respA,,1464,,124,2
355,25,2,./static/experiments/de1b/materials/stim_files/15.png,./static/experiments/de1b/materials/stim_files/12.png,2,respA,,699,,124,2
356,26,2,./static/experiments/de1b/materials/stim_files/5.png,./static/experiments/de1b/materials/stim_files/15.png,2,respB,,653,,124,2
357,27,2,./static/experiments/de1b/materials/stim_files/6.png,./static/experiments/de1b/materials/stim_files/16.png,2,respB,,1388,,124,2
358,28,2,./static/experiments/de1b/materials/stim_files/14.png,./static/experiments/de1b/materials/stim_files/7.png,2,respB,,678,,124,2
359,29,2,./static/experiments/de1b/materials/stim_files/14.png,./static/experiments/de1b/materials/stim_files/6.png,2,respB,,1730,,124,2
360,0,3,./static/experiments/de1b/materials/stim_files/9.png,./static/experiments/de1b/materials/stim_files/12.png,2,respA,,637,,124,2
361,1,3,./static/experiments/de1b/materials/stim_files/8.png,./static/experiments/de1b/materials/stim_files/15.png,2,respB,,1258,,124,2
362,2,3,./static/experiments/de1b/materials/stim_files/6.png,./static/experiments/de1b/materials/stim_files/14.png,2,respB,,754,,124,2
363,3,3,./static/experiments/de1b/materials/stim_files/7.png,./static/experiments/de1b/materials/stim_files/13.png,2,respB,,590,,124,2
364,4,3,./static/experiments/de1b/materials/stim_files/16.png,./static/experiments/de1b/materials/stim_files/7.png,2,respB,,873,,124,2
365,5,3,./static/experiments/de1b/materials/stim_files/2.png,./static/experiments/de1b/materials/stim_files/16.png,2,respB,,801,,124,2
366,6,3,./static/experiments/de1b/materials/stim_files/15.png,./static/experiments/de1b/materials/stim_files/7.png,2,respB,,547,,124,2
367,7,3,./static/experiments/de1b/materials/stim_files/13.png,./static/experiments/de1b/materials/stim_files/8.png,2,respA,,874,,124,2
368,8,3,./static/experiments/de1b/materials/stim_files/16.png,./static/experiments/de1b/materials/stim_files/10.png,2,respB,,1396,,124,2
369,9,3,./static/experiments/de1b/materials/stim_files/16.png,./static/experiments/de1b/materials/stim_files/6.png,2,respB,,3875,,124,2
370,10,3,./static/experiments/de1b/materials/stim_files/12.png,./static/experiments/de1b/materials/stim_files/12.png,2,respB,,867,,124,2
371,11,3,./static/experiments/de1b/materials/stim_files/13.png,./static/experiments/de1b/materials/stim_files/13.png,2,respB,,596,,124,2
372,12,3,./static/experiments/de1b/materials/stim_files/16.png,./static/experiments/de1b/materials/stim_files/3.png,2,respB,,8784,,124,2
373,13,3,./static/experiments/de1b/materials/stim_files/14.png,./static/experiments/de1b/materials/stim_files/7.png,2,respB,,3027,,124,2
374,14,3,./static/experiments/de1b/materials/stim_files/16.png,./static/experiments/de1b/materials/stim_files/4.png,2,respB,,585,,124,2
375,15,3,./static/experiments/de1b/materials/stim_files/16.png,./static/experiments/de1b/materials/stim_files/5.png,2,respB,,3321,,124,2
376,16,3,./static/experiments/de1b/materials/stim_files/11.png,./static/experiments/de1b/materials/stim_files/16.png,2,respB,,1286,,124,2
377,17,3,./static/experiments/de1b/materials/stim_files/15.png,./static/experiments/de1b/materials/stim_files/3.png,2,respB,,713,,124,2
378,18,3,./static/experiments/de1b/materials/stim_files/5.png,./static/experiments/de1b/materials/stim_files/14.png,2,respB,,535,,124,2
379,19,3,./static/experiments/de1b/materials/stim_files/5.png,./static/experiments/de1b/materials/stim_files/15.png,2,respB,,487,,124,2
380,20,3,./static/experiments/de1b/materials/stim_files/15.png,./static/experiments/de1b/materials/stim_files/4.png,2,respB,,465,,124,2
381,21,3,./static/experiments/de1b/materials/stim_files/14.png,./static/experiments/de1b/materials/stim_files/15.png,2,respA,,739,,124,2
382,22,3,./static/experiments/de1b/materials/stim_files/16.png,./static/experiments/de1b/materials/stim_files/3.png,2,respB,,628,,124,2
383,23,3,./static/experiments/de1b/materials/stim_files/2.png,./static/experiments/de1b/materials/stim_files/16.png,2,respB,,626,,124,2
384,24,3,./static/experiments/de1b/materials/stim_files/12.png,./static/experiments/de1b/materials/stim_files/8.png,2,respA,,710,,124,2
385,25,3,./static/experiments/de1b/materials/stim_files/9.png,./static/experiments/de1b/materials/stim_files/11.png,2,respA,,982,,124,2
386,26,3,./static/experiments/de1b/materials/stim_files/14.png,./static/experiments/de1b/materials/stim_files/12.png,2,respA,,10456,,124,2
387,27,3,./static/experiments/de1b/materials/stim_files/12.png,./static/experiments/de1b/materials/stim_files/16.png,2,respA,,861,,124,2
388,28,3,./static/experiments/de1b/materials/stim_files/14.png,./static/experiments/de1b/materials/stim_files/15.png,2,respA,,621,,124,2
389,29,3,./static/experiments/de1b/materials/stim_files/15.png,./static/experiments/de1b/materials/stim_files/12.png,2,respA,,645,,124,2
390,0,0,./static/experiments/de1b/materials/stim_files/13.png,./static/experiments/de1b/materials/stim_files/12.png,2,respB,,3879,,108,1
391,1,0,./static/experiments/de1b/materials/stim_files/13.png,./static/experiments/de1b/materials/stim_files/6.png,2,respA,,6466,,108,1
392,2,0,./static/experiments/de1b/materials/stim_files/4.png,./static/experiments/de1b/materials/stim_files/14.png,2,respB,,4122,,108,1
393,3,0,./static/experiments/de1b/materials/stim_files/16.png,./static/experiments/de1b/materials/stim_files/4.png,2,respA,,1918,,108,1
394,4,0,./static/experiments/de1b/materials/stim_files/2.png,./static/experiments/de1b/materials/stim_files/16.png,2,respA,,3126,,108,1
395,5,0,./static/experiments/de1b/materials/stim_files/15.png,./static/experiments/de1b/materials/stim_files/4.png,2,respA,,1694,,108,1
396,6,0,./static/experiments/de1b/materials/stim_files/11.png,./static/experiments/de1b/materials/stim_files/15.png,2,respB,,2104,,108,1
397,7,0,./static/experiments/de1b/materials/stim_files/16.png,./static/experiments/de1b/materials/stim_files/2.png,2,respA,,1787,,108,1
398,8,0,./static/experiments/de1b/materials/stim_files/3.png,./static/experiments/de1b/materials/stim_files/16.png,2,respA,,1546,,108,1
399,9,0,./static/experiments/de1b/materials/stim_files/12.png,./static/experiments/de1b/materials/stim_files/9.png,2,respB,,894,,108,1
400,10,0,./static/experiments/de1b/materials/stim_files/10.png,./static/experiments/de1b/materials/stim_files/11.png,2,respB,,1156,,108,1
401,11,0,./static/experiments/de1b/materials/stim_files/8.png,./static/experiments/de1b/materials/stim_files/10.png,2,respB,,804,,108,1
402,12,0,./static/experiments/de1b/materials/stim_files/5.png,./static/experiments/de1b/materials/stim_files/13.png,2,respA,,1431,,108,1
403,13,0,./static/experiments/de1b/materials/stim_files/10.png,./static/experiments/de1b/materials/stim_files/15.png,2,respB,,846,,108,1
404,14,0,./static/experiments/de1b/materials/stim_files/16.png,./static/experiments/de1b/materials/stim_files/5.png,2,respB,,772,,108,1
405,15,0,./static/experiments/de1b/materials/stim_files/9.png,./static/experiments/de1b/materials/stim_files/12.png,2,respB,,782,,108,1
406,16,0,./static/experiments/de1b/materials/stim_files/14.png,./static/experiments/de1b/materials/stim_files/8.png,2,respB,,733,,108,1
407,17,0,./static/experiments/de1b/materials/stim_files/15.png,./static/experiments/de1b/materials/stim_files/6.png,2,respA,,1195,,108,1
408,18,0,./static/experiments/de1b/materials/stim_files/15.png,./static/experiments/de1b/materials/stim_files/5.png,2,respA,,692,,108,1
409,19,0,./static/experiments/de1b/materials/stim_files/15.png,./static/experiments/de1b/materials/stim_files/9.png,2,respB,,643,,108,1
410,20,0,./static/experiments/de1b/materials/stim_files/16.png,./static/experiments/de1b/materials/stim_files/3.png,2,respA,,804,,108,1
411,21,0,./static/experiments/de1b/materials/stim_files/13.png,./static/experiments/de1b/materials/stim_files/11.png,2,respB,,610,,108,1
412,22,0,./static/experiments/de1b/materials/stim_files/12.png,./static/experiments/de1b/materials/stim_files/12.png,2,respB,,817,,108,1
413,23,0,./static/experiments/de1b/materials/stim_files/6.png,./static/experiments/de1b/materials/stim_files/14.png,2,respA,,748,,108,1
414,24,0,./static/experiments/de1b/materials/stim_files/8.png,./static/experiments/de1b/materials/stim_files/15.png,2,respB,,709,,108,1
415,25,0,./static/experiments/de1b/materials/stim_files/8.png,./static/experiments/de1b/materials/stim_files/13.png,2,respB,,620,,108,1
416,26,0,./static/experiments/de1b/materials/stim_files/5.png,./static/experiments/de1b/materials/stim_files/14.png,2,respA,,663,,108,1
417,27,0,./static/experiments/de1b/materials/stim_files/15.png,./static/experiments/de1b/materials/stim_files/3.png,2,respA,,688,,108,1
418,28,0,./static/experiments/de1b/materials/stim_files/10.png,./static/experiments/de1b/materials/stim_files/10.png,2,respB,,842,,108,1
419,29,0,./static/experiments/de1b/materials/stim_files/12.png,./static/experiments/de1b/materials/stim_files/8.png,2,respB,,667,,108,1
420,0,1,./static/experiments/de1b/materials/stim_files/13.png,./static/experiments/de1b/materials/stim_files/8.png,2,respB,,620,,108,1
421,1,1,./static/experiments/de1b/materials/stim_files/3.png,./static/experiments/de1b/materials/stim_files/16.png,2,respA,,702,,108,1
422,2,1,./static/experiments/de1b/materials/stim_files/10.png,./static/experiments/de1b/materials/stim_files/8.png,2,respB,,669,,108,1
423,3,1,./static/experiments/de1b/materials/stim_files/2.png,./static/experiments/de1b/materials/stim_files/16.png,2,respA,,626,,108,1
424,4,1,./static/experiments/de1b/materials/stim_files/15.png,./static/experiments/de1b/materials/stim_files/5.png,2,respA,,614,,108,1
425,5,1,./static/experiments/de1b/materials/stim_files/3.png,./static/experiments/de1b/materials/stim_files/15.png,2,respA,,731,,108,1
426,6,1,./static/experiments/de1b/materials/stim_files/14.png,./static/experiments/de1b/materials/stim_files/4.png,2,respA,,1041,,108,1
427,7,1,./static/experiments/de1b/materials/stim_files/6.png,./static/experiments/de1b/materials/stim_files/13.png,2,respB,,1026,,108,1
428,8,1,./static/experiments/de1b/materials/stim_files/15.png,./static/experiments/de1b/materials/stim_files/9.png,2,respB,,603,,108,1
429,9,1,./static/experiments/de1b/materials/stim_files/9.png,./static/experiments/de1b/materials/stim_files/12.png,2,respB,,741,,108,1
430,10,1,./static/experiments/de1b/materials/stim_files/12.png,./static/experiments/de1b/materials/stim_files/8.png,2,respB,,722,,108,1
431,11,1,./static/experiments/de1b/materials/stim_files/14.png,./static/experiments/de1b/materials/stim_files/6.png,2,respA,,1101,,108,1
432,12,1,./static/experiments/de1b/materials/stim_files/12.png,./static/experiments/de1b/materials/stim_files/9.png,2,respB,,621,,108,1
433,13,1,./static/experiments/de1b/materials/stim_files/6.png,./static/experiments/de1b/materials/stim_files/15.png,2,respA,,627,,108,1
434,14,1,./static/experiments/de1b/materials/stim_files/8.png,./static/experiments/de1b/materials/stim_files/15.png,2,respB,,1201,,108,1
435,15,1,./static/experiments/de1b/materials/stim_files/16.png,./static/experiments/de1b/materials/stim_files/2.png,2,respA,,527,,108,1
436,16,1,./static/experiments/de1b/materials/stim_files/12.png,./static/experiments/de1b/materials/stim_files/12.png,2,respB,,596,,108,1
437,17,1,./static/experiments/de1b/materials/stim_files/13.png,./static/experiments/de1b/materials/stim_files/12.png,2,respB,,787,,108,1
438,18,1,./static/experiments/de1b/materials/stim_files/11.png,./static/experiments/de1b/materials/stim_files/10.png,2,respB,,491,,108,1
439,19,1,./static/experiments/de1b/materials/stim_files/10.png,./static/experiments/de1b/materials/stim_files/10.png,2,respB,,548,,108,1
440,20,1,./static/experiments/de1b/materials/stim_files/14.png,./static/experiments/de1b/materials/stim_files/8.png,2,respB,,808,,108,1
441,21,1,./static/experiments/de1b/materials/stim_files/14.png,./static/experiments/de1b/materials/stim_files/5.png,2,respA,,488,,108,1
442,22,1,./static/experiments/de1b/materials/stim_files/5.png,./static/experiments/de1b/materials/stim_files/13.png,2,respA,,664,,108,1
443,23,1,./static/experiments/de1b/materials/stim_files/4.png,./static/experiments/de1b/materials/stim_files/16.png,2,respA,,514,,108,1
444,24,1,./static/experiments/de1b/materials/stim_files/15.png,./static/experiments/de1b/materials/stim_files/4.png,2,respA,,1469,,108,1
445,25,1,./static/experiments/de1b/materials/stim_files/16.png,./static/experiments/de1b/materials/stim_files/3.png,2,respA,,588,,108,1
446,26,1,./static/experiments/de1b/materials/stim_files/11.png,./static/experiments/de1b/materials/stim_files/13.png,2,respB,,570,,108,1
447,27,1,./static/experiments/de1b/materials/stim_files/16.png,./static/experiments/de1b/materials/stim_files/5.png,2,respA,,687,,108,1
448,28,1,./static/experiments/de1b/materials/stim_files/11.png,./static/experiments/de1b/materials/stim_files/15.png,2,respB,,639,,108,1
449,29,1,./static/experiments/de1b/materials/stim_files/10.png,./static/experiments/de1b/materials/stim_files/15.png,2,respB,,738,,108,1
450,0,2,./static/experiments/de1b/materials/stim_files/10.png,./static/experiments/de1b/materials/stim_files/10.png,2,respB,,547,,108,1
451,1,2,./static/experiments/de1b/materials/stim_files/15.png,./static/experiments/de1b/materials/stim_files/3.png,2,respA,,622,,108,1
452,2,2,./static/experiments/de1b/materials/stim_files/5.png,./static/experiments/de1b/materials/stim_files/14.png,2,respA,,623,,108,1
453,3,2,./static/experiments/de1b/materials/stim_files/16.png,./static/experiments/de1b/materials/stim_files/3.png,2,respA,,1286,,108,1
454,4,2,./static/experiments/de1b/materials/stim_files/13.png,./static/experiments/de1b/materials/stim_files/6.png,2,respA,,724,,108,1
455,5,2,./static/experiments/de1b/materials/stim_files/15.png,./static/experiments/de1b/materials/stim_files/4.png,2,respA,,498,,108,1
456,6,2,./static/experiments/de1b/materials/stim_files/12.png,./static/experiments/de1b/materials/stim_files/8.png,2,respB,,569,,108,1
457,7,2,./static/experiments/de1b/materials/stim_files/15.png,./static/experiments/de1b/materials/stim_files/5.png,2,respA,,539,,108,1
458,8,2,./static/experiments/de1b/materials/stim_files/16.png,./static/experiments/de1b/materials/stim_files/2.png,2,respA,,581,,108,1
459,9,2,./static/experiments/de1b/materials/stim_files/8.png,./static/experiments/de1b/materials/stim_files/10.png,2,respB,,698,,108,1
460,10,2,./static/experiments/de1b/materials/stim_files/6.png,./static/experiments/de1b/materials/stim_files/15.png,2,respA,,969,,108,1
461,11,2,./static/experiments/de1b/materials/stim_files/2.png,./static/experiments/de1b/materials/stim_files/16.png,2,respA,,558,,108,1
462,12,2,./static/experiments/de1b/materials/stim_files/14.png,./static/experiments/de1b/materials/stim_files/8.png,2,respB,,629,,108,1
463,13,2,./static/experiments/de1b/materials/stim_files/13.png,./static/experiments/de1b/materials/stim_files/11.png,2,respB,,590,,108,1
464,14,2,./static/experiments/de1b/materials/stim_files/8.png,./static/experiments/de1b/materials/stim_files/15.png,2,respB,,714,,108,1
465,15,2,./static/experiments/de1b/materials/stim_files/15.png,./static/experiments/de1b/materials/stim_files/11.png,2,respB,,685,,108,1
466,16,2,./static/experiments/de1b/materials/stim_files/12.png,./static/experiments/de1b/materials/stim_files/9.png,2,respB,,550,,108,1
467,17,2,./static/experiments/de1b/materials/stim_files/5.png,./static/experiments/de1b/materials/stim_files/13.png,2,respB,,883,,108,1
468,18,2,./static/experiments/de1b/materials/stim_files/4.png,./static/experiments/de1b/materials/stim_files/14.png,2,respA,,602,,108,1
469,19,2,./static/experiments/de1b/materials/stim_files/15.png,./static/experiments/de1b/materials/stim_files/9.png,2,respB,,796,,108,1
470,20,2,./static/experiments/de1b/materials/stim_files/13.png,./static/experiments/de1b/materials/stim_files/12.png,2,respB,,674,,108,1
471,21,2,./static/experiments/de1b/materials/stim_files/10.png,./static/experiments/de1b/materials/stim_files/11.png,2,respB,,594,,108,1
472,22,2,./static/experiments/de1b/materials/stim_files/5.png,./static/experiments/de1b/materials/stim_files/16.png,2,respA,,803,,108,1
473,23,2,./static/experiments/de1b/materials/stim_files/4.png,./static/experiments/de1b/materials/stim_files/16.png,2,respA,,564,,108,1
474,24,2,./static/experiments/de1b/materials/stim_files/15.png,./static/experiments/de1b/materials/stim_files/10.png,2,respB,,723,,108,1
475,25,2,./static/experiments/de1b/materials/stim_files/6.png,./static/experiments/de1b/materials/stim_files/14.png,2,respB,,995,,108,1
476,26,2,./static/experiments/de1b/materials/stim_files/16.png,./static/experiments/de1b/materials/stim_files/3.png,2,respA,,458,,108,1
477,27,2,./static/experiments/de1b/materials/stim_files/9.png,./static/experiments/de1b/materials/stim_files/12.png,2,respB,,3627,,108,1
478,28,2,./static/experiments/de1b/materials/stim_files/8.png,./static/experiments/de1b/materials/stim_files/13.png,2,respB,,1178,,108,1
479,29,2,./static/experiments/de1b/materials/stim_files/12.png,./static/experiments/de1b/materials/stim_files/12.png,2,respB,,1363,,108,1
480,0,3,./static/experiments/de1b/materials/stim_files/5.png,./static/experiments/de1b/materials/stim_files/14.png,2,respA,,562,,108,1
481,1,3,./static/experiments/de1b/materials/stim_files/12.png,./static/experiments/de1b/materials/stim_files/12.png,2,respB,,543,,108,1
482,2,3,./static/experiments/de1b/materials/stim_files/15.png,./static/experiments/de1b/materials/stim_files/8.png,2,respB,,749,,108,1
483,3,3,./static/experiments/de1b/materials/stim_files/3.png,./static/experiments/de1b/materials/stim_files/16.png,2,respA,,531,,108,1
484,4,3,./static/experiments/de1b/materials/stim_files/15.png,./static/experiments/de1b/materials/stim_files/11.png,2,respB,,555,,108,1
485,5,3,./static/experiments/de1b/materials/stim_files/16.png,./static/experiments/de1b/materials/stim_files/2.png,2,respA,,577,,108,1
486,6,3,./static/experiments/de1b/materials/stim_files/12.png,./static/experiments/de1b/materials/stim_files/13.png,2,respB,,511,,108,1
487,7,3,./static/experiments/de1b/materials/stim_files/15.png,./static/experiments/de1b/materials/stim_files/3.png,2,respA,,469,,108,1
488,8,3,./static/experiments/de1b/materials/stim_files/5.png,./static/experiments/de1b/materials/stim_files/13.png,2,respA,,671,,108,1
489,9,3,./static/experiments/de1b/materials/stim_files/16.png,./static/experiments/de1b/materials/stim_files/3.png,2,respA,,692,,108,1
490,10,3,./static/experiments/de1b/materials/stim_files/8.png,./static/experiments/de1b/materials/stim_files/12.png,2,respB,,498,,108,1
491,11,3,./static/experiments/de1b/materials/stim_files/13.png,./static/experiments/de1b/materials/stim_files/6.png,2,respB,,1393,,108,1
492,12,3,./static/experiments/de1b/materials/stim_files/10.png,./static/experiments/de1b/materials/stim_files/10.png,2,respB,,668,,108,1
493,13,3,./static/experiments/de1b/materials/stim_files/5.png,./static/experiments/de1b/materials/stim_files/16.png,2,respA,,578,,108,1
494,14,3,./static/experiments/de1b/materials/stim_files/9.png,./static/experiments/de1b/materials/stim_files/12.png,2,respB,,628,,108,1
495,15,3,./static/experiments/de1b/materials/stim_files/5.png,./static/experiments/de1b/materials/stim_files/15.png,2,respA,,659,,108,1
496,16,3,./static/experiments/de1b/materials/stim_files/11.png,./static/experiments/de1b/materials/stim_files/10.png,2,respB,,555,,108,1
497,17,3,./static/experiments/de1b/materials/stim_files/14.png,./static/experiments/de1b/materials/stim_files/8.png,2,respB,,651,,108,1
498,18,3,./static/experiments/de1b/materials/stim_files/15.png,./static/experiments/de1b/materials/stim_files/10.png,2,respB,,442,,108,1
499,19,3,./static/experiments/de1b/materials/stim_files/6.png,./static/experiments/de1b/materials/stim_files/15.png,2,respA,,469,,108,1
500,20,3,./static/experiments/de1b/materials/stim_files/12.png,./static/experiments/de1b/materials/stim_files/9.png,2,respB,,820,,108,1
501,21,3,./static/experiments/de1b/materials/stim_files/4.png,./static/experiments/de1b/materials/stim_files/15.png,2,respA,,601,,108,1
502,22,3,./static/experiments/de1b/materials/stim_files/4.png,./static/experiments/de1b/materials/stim_files/16.png,2,respA,,698,,108,1
503,23,3,./static/experiments/de1b/materials/stim_files/8.png,./static/experiments/de1b/materials/stim_files/13.png,2,respB,,692,,108,1
504,24,3,./static/experiments/de1b/materials/stim_files/2.png,./static/experiments/de1b/materials/stim_files/16.png,2,respB,,492,,108,1
505,25,3,./static/experiments/de1b/materials/stim_files/11.png,./static/experiments/de1b/materials/stim_files/13.png,2,respB,,583,,108,1
506,26,3,./static/experiments/de1b/materials/stim_files/14.png,./static/experiments/de1b/materials/stim_files/4.png,2,respA,,732,,108,1
507,27,3,./static/experiments/de1b/materials/stim_files/14.png,./static/experiments/de1b/materials/stim_files/6.png,2,respB,,991,,108,1
508,28,3,./static/experiments/de1b/materials/stim_files/8.png,./static/experiments/de1b/materials/stim_files/10.png,2,respB,,713,,108,1
509,29,3,./static/experiments/de1b/materials/stim_files/15.png,./static/experiments/de1b/materials/stim_files/9.png,2,respB,,874,,108,1
510,0,0,./static/experiments/de1b/materials/stim_files/2.png,./static/experiments/de1b/materials/stim_files/16.png,2,respB,,5258,,28,1
511,1,0,./static/experiments/de1b/materials/stim_files/16.png,./static/experiments/de1b/materials/stim_files/6.png,2,respA,,7438,,28,1
512,2,0,./static/experiments/de1b/materials/stim_files/7.png,./static/experiments/de1b/materials/stim_files/11.png,2,respB,,3467,,28,1
513,3,0,./static/experiments/de1b/materials/stim_files/8.png,./static/experiments/de1b/materials/stim_files/10.png,2,respB,,3318,,28,1
514,4,0,./static/experiments/de1b/materials/stim_files/16.png,./static/experiments/de1b/materials/stim_files/3.png,2,respA,,3645,,28,1
515,5,0,./static/experiments/de1b/materials/stim_files/13.png,./static/experiments/de1b/materials/stim_files/12.png,2,respB,,2850,,28,1
516,6,0,./static/experiments/de1b/materials/stim_files/16.png,./static/experiments/de1b/materials/stim_files/13.png,2,respB,,2109,,28,1
517,7,0,./static/experiments/de1b/materials/stim_files/7.png,./static/experiments/de1b/materials/stim_files/12.png,2,respB,,3243,,28,1
518,8,0,./static/experiments/de1b/materials/stim_files/15.png,./static/experiments/de1b/materials/stim_files/3.png,2,respA,,3348,,28,1
519,9,0,./static/experiments/de1b/materials/stim_files/11.png,./static/experiments/de1b/materials/stim_files/16.png,2,respB,,1732,,28,1
520,10,0,./static/experiments/de1b/materials/stim_files/16.png,./static/experiments/de1b/materials/stim_files/5.png,2,respA,,2404,,28,1
521,11,0,./static/experiments/de1b/materials/stim_files/14.png,./static/experiments/de1b/materials/stim_files/5.png,2,respA,,4674,,28,1
522,12,0,./static/experiments/de1b/materials/stim_files/11.png,./static/experiments/de1b/materials/stim_files/14.png,2,respB,,1990,,28,1
523,13,0,./static/experiments/de1b/materials/stim_files/12.png,./static/experiments/de1b/materials/stim_files/6.png,2,respB,,2354,,28,1
524,14,0,./static/experiments/de1b/materials/stim_files/16.png,./static/experiments/de1b/materials/stim_files/2.png,2,respA,,1833,,28,1
525,15,0,./static/experiments/de1b/materials/stim_files/3.png,./static/experiments/de1b/materials/stim_files/16.png,2,respB,,4706,,28,1
526,16,0,./static/experiments/de1b/materials/stim_files/16.png,./static/experiments/de1b/materials/stim_files/4.png,2,respA,,3450,,28,1
527,17,0,./static/experiments/de1b/materials/stim_files/7.png,./static/experiments/de1b/materials/stim_files/15.png,2,respB,,1183,,28,1
528,18,0,./static/experiments/de1b/materials/stim_files/8.png,./static/experiments/de1b/materials/stim_files/15.png,2,respB,,2000,,28,1
529,19,0,./static/experiments/de1b/materials/stim_files/7.png,./static/experiments/de1b/materials/stim_files/15.png,2,respB,,1208,,28,1
530,20,0,./static/experiments/de1b/materials/stim_files/15.png,./static/experiments/de1b/materials/stim_files/4.png,2,respA,,2760,,28,1
531,21,0,./static/experiments/de1b/materials/stim_files/15.png,./static/experiments/de1b/materials/stim_files/15.png,2,respB,,1259,,28,1
532,22,0,./static/experiments/de1b/materials/stim_files/5.png,./static/experiments/de1b/materials/stim_files/15.png,2,respB,,1271,,28,1
533,23,0,./static/experiments/de1b/materials/stim_files/10.png,./static/experiments/de1b/materials/stim_files/11.png,2,respB,,1316,,28,1
534,24,0,./static/experiments/de1b/materials/stim_files/16.png,./static/experiments/de1b/materials/stim_files/10.png,2,respB,,16051,,28,1
535,25,0,./static/experiments/de1b/materials/stim_files/9.png,./static/experiments/de1b/materials/stim_files/16.png,2,respB,,1133,,28,1
536,26,0,./static/experiments/de1b/materials/stim_files/11.png,./static/experiments/de1b/materials/stim_files/15.png,2,respB,,8364,,28,1
537,27,0,./static/experiments/de1b/materials/stim_files/16.png,./static/experiments/de1b/materials/stim_files/14.png,2,respB,,892,,28,1
538,28,0,./static/experiments/de1b/materials/stim_files/14.png,./static/experiments/de1b/materials/stim_files/14.png,2,respB,,879,,28,1
539,29,0,./static/experiments/de1b/materials/stim_files/7.png,./static/experiments/de1b/materials/stim_files/16.png,2,respB,,939,,28,1
540,0,1,./static/experiments/de1b/materials/stim_files/16.png,./static/experiments/de1b/materials/stim_files/4.png,2,respA,,2702,,28,1
541,1,1,./static/experiments/de1b/materials/stim_files/12.png,./static/experiments/de1b/materials/stim_files/7.png,2,respB,,1143,,28,1
542,2,1,./static/experiments/de1b/materials/stim_files/15.png,./static/experiments/de1b/materials/stim_files/7.png,2,respB,,3588,,28,1
543,3,1,./static/experiments/de1b/materials/stim_files/13.png,./static/experiments/de1b/materials/stim_files/12.png,2,respB,,1267,,28,1
544,4,1,./static/experiments/de1b/materials/stim_files/11.png,./static/experiments/de1b/materials/stim_files/10.png,2,respB,,2508,,28,1
545,5,1,./static/experiments/de1b/materials/stim_files/9.png,./static/experiments/de1b/materials/stim_files/16.png,2,respB,,1191,,28,1
546,6,1,./static/experiments/de1b/materials/stim_files/8.png,./static/experiments/de1b/materials/stim_files/15.png,2,respB,,942,,28,1
547,7,1,./static/experiments/de1b/materials/stim_files/16.png,./static/experiments/de1b/materials/stim_files/2.png,2,respA,,1658,,28,1
548,8,1,./static/experiments/de1b/materials/stim_files/16.png,./static/experiments/de1b/materials/stim_files/6.png,2,respB,,1520,,28,1
549,9,1,./static/experiments/de1b/materials/stim_files/6.png,./static/experiments/de1b/materials/stim_files/12.png,2,respB,,1680,,28,1
550,10,1,./static/experiments/de1b/materials/stim_files/16.png,./static/experiments/de1b/materials/stim_files/7.png,2,respB,,1954,,28,1
551,11,1,./static/experiments/de1b/materials/stim_files/14.png,./static/experiments/de1b/materials/stim_files/14.png,2,respB,,1072,,28,1
552,12,1,./static/experiments/de1b/materials/stim_files/15.png,./static/experiments/de1b/materials/stim_files/3.png,2,respA,,1671,,28,1
553,13,1,./static/experiments/de1b/materials/stim_files/10.png,./static/experiments/de1b/materials/stim_files/16.png,2,respB,,1055,,28,1
554,14,1,./static/experiments/de1b/materials/stim_files/16.png,./static/experiments/de1b/materials/stim_files/3.png,2,respA,,1225,,28,1
555,15,1,./static/experiments/de1b/materials/stim_files/16.png,./static/experiments/de1b/materials/stim_files/3.png,2,respA,,1813,,28,1
556,16,1,./static/experiments/de1b/materials/stim_files/14.png,./static/experiments/de1b/materials/stim_files/11.png,2,respB,,935,,28,1
557,17,1,./static/experiments/de1b/materials/stim_files/16.png,./static/experiments/de1b/materials/stim_files/14.png,2,respB,,799,,28,1
558,18,1,./static/experiments/de1b/materials/stim_files/16.png,./static/experiments/de1b/materials/stim_files/2.png,2,respA,,3228,,28,1
559,19,1,./static/experiments/de1b/materials/stim_files/11.png,./static/experiments/de1b/materials/stim_files/7.png,2,respB,,957,,28,1
560,20,1,./static/experiments/de1b/materials/stim_files/11.png,./static/experiments/de1b/materials/stim_files/15.png,2,respB,,1047,,28,1
561,21,1,./static/experiments/de1b/materials/stim_files/15.png,./static/experiments/de1b/materials/stim_files/15.png,2,respB,,1289,,28,1
562,22,1,./static/experiments/de1b/materials/stim_files/14.png,./static/experiments/de1b/materials/stim_files/5.png,2,respB,,3062,,28,1
563,23,1,./static/experiments/de1b/materials/stim_files/10.png,./static/experiments/de1b/materials/stim_files/8.png,2,respB,,1027,,28,1
564,24,1,./static/experiments/de1b/materials/stim_files/11.png,./static/experiments/de1b/materials/stim_files/16.png,2,respB,,1042,,28,1
565,25,1,./static/experiments/de1b/materials/stim_files/5.png,./static/experiments/de1b/materials/stim_files/16.png,2,respB,,1262,,28,1
566,26,1,./static/experiments/de1b/materials/stim_files/5.png,./static/experiments/de1b/materials/stim_files/15.png,2,respB,,1487,,28,1
567,27,1,./static/experiments/de1b/materials/stim_files/16.png,./static/experiments/de1b/materials/stim_files/13.png,2,respB,,1270,,28,1
568,28,1,./static/experiments/de1b/materials/stim_files/15.png,./static/experiments/de1b/materials/stim_files/4.png,2,respA,,2486,,28,1
569,29,1,./static/experiments/de1b/materials/stim_files/15.png,./static/experiments/de1b/materials/stim_files/7.png,2,respB,,1121,,28,1
570,0,2,./static/experiments/de1b/materials/stim_files/15.png,./static/experiments/de1b/materials/stim_files/8.png,2,respB,,2136,,28,1
571,1,2,./static/experiments/de1b/materials/stim_files/11.png,./static/experiments/de1b/materials/stim_files/10.png,2,respB,,993,,28,1
572,2,2,./static/experiments/de1b/materials/stim_files/13.png,./static/experiments/de1b/materials/stim_files/16.png,2,respB,,1291,,28,1
573,3,2,./static/experiments/de1b/materials/stim_files/6.png,./static/experiments/de1b/materials/stim_files/16.png,2,respB,,1705,,28,1
574,4,2,./static/experiments/de1b/materials/stim_files/12.png,./static/experiments/de1b/materials/stim_files/7.png,2,respB,,1219,,28,1
575,5,2,./static/experiments/de1b/materials/stim_files/16.png,./static/experiments/de1b/materials/stim_files/11.png,2,respB,,972,,28,1
576,6,2,./static/experiments/de1b/materials/stim_files/5.png,./static/experiments/de1b/materials/stim_files/14.png,2,respB,,746,,28,1
577,7,2,./static/experiments/de1b/materials/stim_files/7.png,./static/experiments/de1b/materials/stim_files/15.png,2,respB,,803,,28,1
578,8,2,./static/experiments/de1b/materials/stim_files/2.png,./static/experiments/de1b/materials/stim_files/16.png,2,respB,,3978,,28,1
579,9,2,./static/experiments/de1b/materials/stim_files/12.png,./static/experiments/de1b/materials/stim_files/6.png,2,respB,,1893,,28,1
580,10,2,./static/experiments/de1b/materials/stim_files/16.png,./static/experiments/de1b/materials/stim_files/9.png,2,respB,,1275,,28,1
581,11,2,./static/experiments/de1b/materials/stim_files/15.png,./static/experiments/de1b/materials/stim_files/7.png,2,respB,,1318,,28,1
582,12,2,./static/experiments/de1b/materials/stim_files/5.png,./static/experiments/de1b/materials/stim_files/16.png,2,respB,,646,,28,1
583,13,2,./static/experiments/de1b/materials/stim_files/10.png,./static/experiments/de1b/materials/stim_files/8.png,2,respB,,826,,28,1
584,14,2,./static/experiments/de1b/materials/stim_files/2.png,./static/experiments/de1b/materials/stim_files/16.png,2,respA,,1733,,28,1
585,15,2,./static/experiments/de1b/materials/stim_files/11.png,./static/experiments/de1b/materials/stim_files/15.png,2,respB,,3105,,28,1
586,16,2,./static/experiments/de1b/materials/stim_files/16.png,./static/experiments/de1b/materials/stim_files/7.png,2,respB,,832,,28,1
587,17,2,./static/experiments/de1b/materials/stim_files/10.png,./static/experiments/de1b/materials/stim_files/16.png,2,respB,,894,,28,1
588,18,2,./static/experiments/de1b/materials/stim_files/3.png,./static/experiments/de1b/materials/stim_files/16.png,2,respB,,1098,,28,1
589,19,2,./static/experiments/de1b/materials/stim_files/16.png,./static/experiments/de1b/materials/stim_files/14.png,2,respB,,853,,28,1
590,20,2,./static/experiments/de1b/materials/stim_files/16.png,./static/experiments/de1b/materials/stim_files/3.png,2,respA,,1434,,28,1
591,21,2,./static/experiments/de1b/materials/stim_files/15.png,./static/experiments/de1b/materials/stim_files/15.png,2,respB,,2287,,28,1
592,22,2,./static/experiments/de1b/materials/stim_files/16.png,./static/experiments/de1b/materials/stim_files/4.png,2,respA,,3349,,28,1
593,23,2,./static/experiments/de1b/materials/stim_files/7.png,./static/experiments/de1b/materials/stim_files/11.png,2,respB,,1009,,28,1
594,24,2,./static/experiments/de1b/materials/stim_files/15.png,./static/experiments/de1b/materials/stim_files/4.png,2,respA,,1504,,28,1
595,25,2,./static/experiments/de1b/materials/stim_files/14.png,./static/experiments/de1b/materials/stim_files/14.png,2,respB,,1091,,28,1
596,26,2,./static/experiments/de1b/materials/stim_files/11.png,./static/experiments/de1b/materials/stim_files/14.png,2,respB,,1274,,28,1
597,27,2,./static/experiments/de1b/materials/stim_files/15.png,./static/experiments/de1b/materials/stim_files/3.png,2,respA,,1585,,28,1
598,28,2,./static/experiments/de1b/materials/stim_files/5.png,./static/experiments/de1b/materials/stim_files/15.png,2,respB,,992,,28,1
599,29,2,./static/experiments/de1b/materials/stim_files/13.png,./static/experiments/de1b/materials/stim_files/12.png,2,respB,,957,,28,1
600,0,3,./static/experiments/de1b/materials/stim_files/11.png,./static/experiments/de1b/materials/stim_files/7.png,2,respB,,800,,28,1
601,1,3,./static/experiments/de1b/materials/stim_files/16.png,./static/experiments/de1b/materials/stim_files/13.png,2,respB,,888,,28,1
602,2,3,./static/experiments/de1b/materials/stim_files/11.png,./static/experiments/de1b/materials/stim_files/16.png,2,respB,,1107,,28,1
603,3,3,./static/experiments/de1b/materials/stim_files/15.png,./static/experiments/de1b/materials/stim_files/7.png,2,respB,,1192,,28,1
604,4,3,./static/experiments/de1b/materials/stim_files/14.png,./static/experiments/de1b/materials/stim_files/14.png,2,respB,,855,,28,1
605,5,3,./static/experiments/de1b/materials/stim_files/6.png,./static/experiments/de1b/materials/stim_files/12.png,2,respB,,1128,,28,1
606,6,3,./static/experiments/de1b/materials/stim_files/16.png,./static/experiments/de1b/materials/stim_files/10.png,2,respB,,867,,28,1
607,7,3,./static/experiments/de1b/materials/stim_files/5.png,./static/experiments/de1b/materials/stim_files/14.png,2,respB,,1010,,28,1
608,8,3,./static/experiments/de1b/materials/stim_files/3.png,./static/experiments/de1b/materials/stim_files/16.png,2,respB,,772,,28,1
609,9,3,./static/experiments/de1b/materials/stim_files/6.png,./static/experiments/de1b/materials/stim_files/16.png,2,respB,,1780,,28,1
610,10,3,./static/experiments/de1b/materials/stim_files/3.png,./static/experiments/de1b/materials/stim_files/16.png,2,respB,,1061,,28,1
611,11,3,./static/experiments/de1b/materials/stim_files/5.png,./static/experiments/de1b/materials/stim_files/16.png,2,respB,,1585,,28,1
612,12,3,./static/experiments/de1b/materials/stim_files/8.png,./static/experiments/de1b/materials/stim_files/15.png,2,respB,,800,,28,1
613,13,3,./static/experiments/de1b/materials/stim_files/8.png,./static/experiments/de1b/materials/stim_files/10.png,2,respB,,757,,28,1
614,14,3,./static/experiments/de1b/materials/stim_files/16.png,./static/experiments/de1b/materials/stim_files/4.png,2,respA,,1149,,28,1
615,15,3,./static/experiments/de1b/materials/stim_files/7.png,./static/experiments/de1b/materials/stim_files/16.png,2,respB,,838,,28,1
616,16,3,./static/experiments/de1b/materials/stim_files/9.png,./static/experiments/de1b/materials/stim_files/16.png,2,respB,,806,,28,1
617,17,3,./static/experiments/de1b/materials/stim_files/12.png,./static/experiments/de1b/materials/stim_files/7.png,2,respB,,1029,,28,1
618,18,3,./static/experiments/de1b/materials/stim_files/15.png,./static/experiments/de1b/materials/stim_files/7.png,2,respB,,1021,,28,1
619,19,3,./static/experiments/de1b/materials/stim_files/16.png,./static/experiments/de1b/materials/stim_files/2.png,2,respA,,1453,,28,1
620,20,3,./static/experiments/de1b/materials/stim_files/15.png,./static/experiments/de1b/materials/stim_files/11.png,2,respB,,3511,,28,1
621,21,3,./static/experiments/de1b/materials/stim_files/15.png,./static/experiments/de1b/materials/stim_files/5.png,2,respA,,1359,,28,1
622,22,3,./static/experiments/de1b/materials/stim_files/15.png,./static/experiments/de1b/materials/stim_files/4.png,2,respA,,1067,,28,1
623,23,3,./static/experiments/de1b/materials/stim_files/3.png,./static/experiments/de1b/materials/stim_files/15.png,2,respB,,1879,,28,1
624,24,3,./static/experiments/de1b/materials/stim_files/14.png,./static/experiments/de1b/materials/stim_files/16.png,2,respB,,9107,,28,1
625,25,3,./static/experiments/de1b/materials/stim_files/11.png,./static/experiments/de1b/materials/stim_files/10.png,2,respB,,736,,28,1
626,26,3,./static/experiments/de1b/materials/stim_files/16.png,./static/experiments/de1b/materials/stim_files/2.png,2,respA,,1319,,28,1
627,27,3,./static/experiments/de1b/materials/stim_files/11.png,./static/experiments/de1b/materials/stim_files/14.png,2,respB,,1006,,28,1
628,28,3,./static/experiments/de1b/materials/stim_files/13.png,./static/experiments/de1b/materials/stim_files/12.png,2,respB,,744,,28,1
629,29,3,./static/experiments/de1b/materials/stim_files/15.png,./static/experiments/de1b/materials/stim_files/15.png,2,respB,,748,,28,1
630,0,0,./static/experiments/de1b/materials/stim_files/7.png,./static/experiments/de1b/materials/stim_files/16.png,2,respA,,3814,,8,1
631,1,0,./static/experiments/de1b/materials/stim_files/15.png,./static/experiments/de1b/materials/stim_files/15.png,2,respB,,1498,,8,1
632,2,0,./static/experiments/de1b/materials/stim_files/14.png,./static/experiments/de1b/materials/stim_files/8.png,2,respB,,3330,,8,1
633,3,0,./static/experiments/de1b/materials/stim_files/14.png,./static/experiments/de1b/materials/stim_files/8.png,2,respB,,1476,,8,1
634,4,0,./static/experiments/de1b/materials/stim_files/11.png,./static/experiments/de1b/materials/stim_files/15.png,2,respB,,1387,,8,1
635,5,0,./static/experiments/de1b/materials/stim_files/16.png,./static/experiments/de1b/materials/stim_files/3.png,2,respA,,4027,,8,1
636,6,0,./static/experiments/de1b/materials/stim_files/16.png,./static/experiments/de1b/materials/stim_files/13.png,2,respB,,2373,,8,1
637,7,0,./static/experiments/de1b/materials/stim_files/16.png,./static/experiments/de1b/materials/stim_files/4.png,2,respA,,5847,,8,1
638,8,0,./static/experiments/de1b/materials/stim_files/8.png,./static/experiments/de1b/materials/stim_files/16.png,2,respA,,1097,,8,1
639,9,0,./static/experiments/de1b/materials/stim_files/9.png,./static/experiments/de1b/materials/stim_files/16.png,2,respA,,4472,,8,1
640,10,0,./static/experiments/de1b/materials/stim_files/6.png,./static/experiments/de1b/materials/stim_files/15.png,2,respA,,1021,,8,1
641,11,0,./static/experiments/de1b/materials/stim_files/16.png,./static/experiments/de1b/materials/stim_files/16.png,2,respB,,863,,8,1
642,12,0,./static/experiments/de1b/materials/stim_files/16.png,./static/experiments/de1b/materials/stim_files/4.png,2,respA,,1145,,8,1
643,13,0,./static/experiments/de1b/materials/stim_files/3.png,./static/experiments/de1b/materials/stim_files/16.png,2,respB,,1535,,8,1
644,14,0,./static/experiments/de1b/materials/stim_files/4.png,./static/experiments/de1b/materials/stim_files/15.png,2,respA,,1431,,8,1
645,15,0,./static/experiments/de1b/materials/stim_files/16.png,./static/experiments/de1b/materials/stim_files/6.png,2,respA,,1070,,8,1
646,16,0,./static/experiments/de1b/materials/stim_files/10.png,./static/experiments/de1b/materials/stim_files/8.png,2,respB,,980,,8,1
647,17,0,./static/experiments/de1b/materials/stim_files/15.png,./static/experiments/de1b/materials/stim_files/5.png,2,respA,,1104,,8,1
648,18,0,./static/experiments/de1b/materials/stim_files/15.png,./static/experiments/de1b/materials/stim_files/11.png,2,respB,,948,,8,1
649,19,0,./static/experiments/de1b/materials/stim_files/7.png,./static/experiments/de1b/materials/stim_files/12.png,2,respB,,1124,,8,1
650,20,0,./static/experiments/de1b/materials/stim_files/16.png,./static/experiments/de1b/materials/stim_files/5.png,2,respA,,773,,8,1
651,21,0,./static/experiments/de1b/materials/stim_files/14.png,./static/experiments/de1b/materials/stim_files/7.png,2,respA,,1865,,8,1
652,22,0,./static/experiments/de1b/materials/stim_files/15.png,./static/experiments/de1b/materials/stim_files/13.png,2,respB,,816,,8,1
653,23,0,./static/experiments/de1b/materials/stim_files/15.png,./static/experiments/de1b/materials/stim_files/12.png,2,respA,,781,,8,1
654,24,0,./static/experiments/de1b/materials/stim_files/2.png,./static/experiments/de1b/materials/stim_files/16.png,2,respA,,2041,,8,1
655,25,0,./static/experiments/de1b/materials/stim_files/2.png,./static/experiments/de1b/materials/stim_files/16.png,2,respB,,2892,,8,1
656,26,0,./static/experiments/de1b/materials/stim_files/13.png,./static/experiments/de1b/materials/stim_files/5.png,2,respA,,1097,,8,1
657,27,0,./static/experiments/de1b/materials/stim_files/11.png,./static/experiments/de1b/materials/stim_files/16.png,2,respB,,1183,,8,1
658,28,0,./static/experiments/de1b/materials/stim_files/10.png,./static/experiments/de1b/materials/stim_files/9.png,2,respA,,850,,8,1
659,29,0,./static/experiments/de1b/materials/stim_files/15.png,./static/experiments/de1b/materials/stim_files/16.png,2,respB,,813,,8,1
660,0,1,./static/experiments/de1b/materials/stim_files/16.png,./static/experiments/de1b/materials/stim_files/13.png,2,respB,,1241,,8,1
661,1,1,./static/experiments/de1b/materials/stim_files/15.png,./static/experiments/de1b/materials/stim_files/13.png,2,respB,,696,,8,1
662,2,1,./static/experiments/de1b/materials/stim_files/16.png,./static/experiments/de1b/materials/stim_files/2.png,2,respA,,831,,8,1
663,3,1,./static/experiments/de1b/materials/stim_files/6.png,./static/experiments/de1b/materials/stim_files/15.png,2,respB,,813,,8,1
664,4,1,./static/experiments/de1b/materials/stim_files/7.png,./static/experiments/de1b/materials/stim_files/16.png,2,respA,,526,,8,1
665,5,1,./static/experiments/de1b/materials/stim_files/14.png,./static/experiments/de1b/materials/stim_files/7.png,2,respA,,993,,8,1
666,6,1,./static/experiments/de1b/materials/stim_files/6.png,./static/experiments/de1b/materials/stim_files/16.png,2,respB,,708,,8,1
667,7,1,./static/experiments/de1b/materials/stim_files/11.png,./static/experiments/de1b/materials/stim_files/15.png,2,respB,,984,,8,1
668,8,1,./static/experiments/de1b/materials/stim_files/16.png,./static/experiments/de1b/materials/stim_files/15.png,2,respB,,721,,8,1
669,9,1,./static/experiments/de1b/materials/stim_files/8.png,./static/experiments/de1b/materials/stim_files/10.png,2,respB,,1359,,8,1
670,10,1,./static/experiments/de1b/materials/stim_files/13.png,./static/experiments/de1b/materials/stim_files/5.png,2,respA,,611,,8,1
671,11,1,./static/experiments/de1b/materials/stim_files/15.png,./static/experiments/de1b/materials/stim_files/4.png,2,respB,,1718,,8,1
672,12,1,./static/experiments/de1b/materials/stim_files/8.png,./static/experiments/de1b/materials/stim_files/14.png,2,respA,,615,,8,1
673,13,1,./static/experiments/de1b/materials/stim_files/16.png,./static/experiments/de1b/materials/stim_files/3.png,2,respB,,684,,8,1
674,14,1,./static/experiments/de1b/materials/stim_files/16.png,./static/experiments/de1b/materials/stim_files/16.png,2,respB,,813,,8,1
675,15,1,./static/experiments/de1b/materials/stim_files/4.png,./static/experiments/de1b/materials/stim_files/16.png,2,respA,,909,,8,1
676,16,1,./static/experiments/de1b/materials/stim_files/16.png,./static/experiments/de1b/materials/stim_files/11.png,2,respA,,678,,8,1
677,17,1,./static/experiments/de1b/materials/stim_files/11.png,./static/experiments/de1b/materials/stim_files/15.png,2,respB,,903,,8,1
678,18,1,./static/experiments/de1b/materials/stim_files/16.png,./static/experiments/de1b/materials/stim_files/4.png,2,respB,,976,,8,1
679,19,1,./static/experiments/de1b/materials/stim_files/5.png,./static/experiments/de1b/materials/stim_files/16.png,2,respA,,610,,8,1
680,20,1,./static/experiments/de1b/materials/stim_files/15.png,./static/experiments/de1b/materials/stim_files/5.png,2,respB,,695,,8,1
681,21,1,./static/experiments/de1b/materials/stim_files/3.png,./static/experiments/de1b/materials/stim_files/16.png,2,respA,,338,,8,1
682,22,1,./static/experiments/de1b/materials/stim_files/7.png,./static/experiments/de1b/materials/stim_files/12.png,2,respB,,370,,8,1
683,23,1,./static/experiments/de1b/materials/stim_files/16.png,./static/experiments/de1b/materials/stim_files/2.png,2,respB,,767,,8,1
684,24,1,./static/experiments/de1b/materials/stim_files/8.png,./static/experiments/de1b/materials/stim_files/14.png,2,respA,,545,,8,1
685,25,1,./static/experiments/de1b/materials/stim_files/16.png,./static/experiments/de1b/materials/stim_files/9.png,2,respA,,2705,,8,1
686,26,1,./static/experiments/de1b/materials/stim_files/9.png,./static/experiments/de1b/materials/stim_files/10.png,2,respB,,750,,8,1
687,27,1,./static/experiments/de1b/materials/stim_files/15.png,./static/experiments/de1b/materials/stim_files/15.png,2,respB,,1122,,8,1
688,28,1,./static/experiments/de1b/materials/stim_files/15.png,./static/experiments/de1b/materials/stim_files/12.png,2,respA,,805,,8,1
689,29,1,./static/experiments/de1b/materials/stim_files/16.png,./static/experiments/de1b/materials/stim_files/8.png,2,respA,,3902,,8,1
690,0,2,./static/experiments/de1b/materials/stim_files/16.png,./static/experiments/de1b/materials/stim_files/16.png,2,respB,,684,,8,1
691,1,2,./static/experiments/de1b/materials/stim_files/15.png,./static/experiments/de1b/materials/stim_files/15.png,2,respB,,575,,8,1
692,2,2,./static/experiments/de1b/materials/stim_files/2.png,./static/experiments/de1b/materials/stim_files/16.png,2,respB,,989,,8,1
693,3,2,./static/experiments/de1b/materials/stim_files/11.png,./static/experiments/de1b/materials/stim_files/16.png,2,respA,,781,,8,1
694,4,2,./static/experiments/de1b/materials/stim_files/14.png,./static/experiments/de1b/materials/stim_files/8.png,2,respA,,688,,8,1
695,5,2,./static/experiments/de1b/materials/stim_files/8.png,./static/experiments/de1b/materials/stim_files/10.png,2,respB,,734,,8,1
696,6,2,./static/experiments/de1b/materials/stim_files/9.png,./static/experiments/de1b/materials/stim_files/10.png,2,respB,,656,,8,1
697,7,2,./static/experiments/de1b/materials/stim_files/15.png,./static/experiments/de1b/materials/stim_files/5.png,2,respA,,737,,8,1
698,8,2,./static/experiments/de1b/materials/stim_files/7.png,./static/experiments/de1b/materials/stim_files/16.png,2,respA,,727,,8,1
699,9,2,./static/experiments/de1b/materials/stim_files/3.png,./static/experiments/de1b/materials/stim_files/16.png,2,respB,,715,,8,1
700,10,2,./static/experiments/de1b/materials/stim_files/15.png,./static/experiments/de1b/materials/stim_files/13.png,2,respB,,3207,,8,1
701,11,2,./static/experiments/de1b/materials/stim_files/12.png,./static/experiments/de1b/materials/stim_files/7.png,2,respA,,586,,8,1
702,12,2,./static/experiments/de1b/materials/stim_files/15.png,./static/experiments/de1b/materials/stim_files/6.png,2,respA,,5201,,8,1
703,13,2,./static/experiments/de1b/materials/stim_files/14.png,./static/experiments/de1b/materials/stim_files/8.png,2,respA,,704,,8,1
704,14,2,./static/experiments/de1b/materials/stim_files/5.png,./static/experiments/de1b/materials/stim_files/13.png,2,respB,,652,,8,1
705,15,2,./static/experiments/de1b/materials/stim_files/14.png,./static/experiments/de1b/materials/stim_files/7.png,2,respA,,645,,8,1
706,16,2,./static/experiments/de1b/materials/stim_files/11.png,./static/experiments/de1b/materials/stim_files/15.png,2,respB,,601,,8,1
707,17,2,./static/experiments/de1b/materials/stim_files/4.png,./static/experiments/de1b/materials/stim_files/15.png,2,respB,,1429,,8,1
708,18,2,./static/experiments/de1b/materials/stim_files/16.png,./static/experiments/de1b/materials/stim_files/13.png,2,respA,,818,,8,1
709,19,2,./static/experiments/de1b/materials/stim_files/2.png,./static/experiments/de1b/materials/stim_files/16.png,2,respB,,2488,,8,1
710,20,2,./static/experiments/de1b/materials/stim_files/16.png,./static/experiments/de1b/materials/stim_files/4.png,2,respB,,2767,,8,1
711,21,2,./static/experiments/de1b/materials/stim_files/6.png,./static/experiments/de1b/materials/stim_files/16.png,2,respB,,1545,,8,1
712,22,2,./static/experiments/de1b/materials/stim_files/16.png,./static/experiments/de1b/materials/stim_files/15.png,2,respB,,2756,,8,1
713,23,2,./static/experiments/de1b/materials/stim_files/16.png,./static/experiments/de1b/materials/stim_files/3.png,2,respA,,761,,8,1
714,24,2,./static/experiments/de1b/materials/stim_files/15.png,./static/experiments/de1b/materials/stim_files/12.png,2,respB,,632,,8,1
715,25,2,./static/experiments/de1b/materials/stim_files/16.png,./static/experiments/de1b/materials/stim_files/5.png,2,respA,,837,,8,1
716,26,2,./static/experiments/de1b/materials/stim_files/4.png,./static/experiments/de1b/materials/stim_files/16.png,2,respB,,3286,,8,1
717,27,2,./static/experiments/de1b/materials/stim_files/8.png,./static/experiments/de1b/materials/stim_files/16.png,2,respA,,661,,8,1
718,28,2,./static/experiments/de1b/materials/stim_files/16.png,./static/experiments/de1b/materials/stim_files/9.png,2,respA,,1018,,8,1
719,29,2,./static/experiments/de1b/materials/stim_files/15.png,./static/experiments/de1b/materials/stim_files/11.png,2,respB,,917,,8,1
720,0,3,./static/experiments/de1b/materials/stim_files/16.png,./static/experiments/de1b/materials/stim_files/3.png,2,respA,,1151,,8,1
721,1,3,./static/experiments/de1b/materials/stim_files/7.png,./static/experiments/de1b/materials/stim_files/12.png,2,respB,,721,,8,1
722,2,3,./static/experiments/de1b/materials/stim_files/16.png,./static/experiments/de1b/materials/stim_files/9.png,2,respB,,1727,,8,1
723,3,3,./static/experiments/de1b/materials/stim_files/15.png,./static/experiments/de1b/materials/stim_files/12.png,2,respA,,1064,,8,1
724,4,3,./static/experiments/de1b/materials/stim_files/16.png,./static/experiments/de1b/materials/stim_files/6.png,2,respA,,888,,8,1
725,5,3,./static/experiments/de1b/materials/stim_files/8.png,./static/experiments/de1b/materials/stim_files/14.png,2,respB,,1117,,8,1
726,6,3,./static/experiments/de1b/materials/stim_files/15.png,./static/experiments/de1b/materials/stim_files/6.png,2,respA,,2787,,8,1
727,7,3,./static/experiments/de1b/materials/stim_files/15.png,./static/experiments/de1b/materials/stim_files/11.png,2,respA,,1189,,8,1
728,8,3,./static/experiments/de1b/materials/stim_files/16.png,./static/experiments/de1b/materials/stim_files/2.png,2,respB,,830,,8,1
729,9,3,./static/experiments/de1b/materials/stim_files/5.png,./static/experiments/de1b/materials/stim_files/16.png,2,respA,,2000,,8,1
730,10,3,./static/experiments/de1b/materials/stim_files/14.png,./static/experiments/de1b/materials/stim_files/7.png,2,respA,,22039,,8,1
731,11,3,./static/experiments/de1b/materials/stim_files/10.png,./static/experiments/de1b/materials/stim_files/9.png,2,respB,,1146,,8,1
732,12,3,./static/experiments/de1b/materials/stim_files/5.png,./static/experiments/de1b/materials/stim_files/15.png,2,respA,,1125,,8,1
733,13,3,./static/experiments/de1b/materials/stim_files/8.png,./static/experiments/de1b/materials/stim_files/16.png,2,respB,,703,,8,1
734,14,3,./static/experiments/de1b/materials/stim_files/2.png,./static/experiments/de1b/materials/stim_files/16.png,2,respB,,704,,8,1
735,15,3,./static/experiments/de1b/materials/stim_files/16.png,./static/experiments/de1b/materials/stim_files/13.png,2,respB,,3188,,8,1
